## w(eV)         sigma(Sm^-1)     kappa(W(mK)^-1)        L12/e(Am^-1)      L22/e^2(Wm^-1)
    0.01              515792             765.112        -1.00551e+07         2.68498e+08
    0.03              515789             765.106         -1.0055e+07         2.68498e+08
    0.05              515782             765.094         -1.0055e+07         2.68498e+08
    0.07              515771             765.076        -1.00549e+07         2.68498e+08
    0.09              515757             765.052        -1.00549e+07         2.68498e+08
    0.11              515740             765.021        -1.00548e+07         2.68498e+08
    0.13              515719             764.985        -1.00546e+07         2.68498e+08
    0.15              515695             764.943        -1.00545e+07         2.68498e+08
    0.17              515667             764.894        -1.00544e+07         2.68498e+08
    0.19              515636              764.84        -1.00542e+07         2.68498e+08
    0.21              515601              764.78         -1.0054e+07         2.68498e+08
    0.23              515562             764.713        -1.00538e+07         2.68498e+08
    0.25              515521              764.64        -1.00535e+07         2.68498e+08
    0.27              515476             764.562        -1.00533e+07         2.68498e+08
    0.29              515427             764.477         -1.0053e+07         2.68497e+08
    0.31              515375             764.386        -1.00527e+07         2.68497e+08
    0.33              515319              764.29        -1.00524e+07         2.68497e+08
    0.35              515260             764.187        -1.00521e+07         2.68497e+08
    0.37              515197             764.078        -1.00517e+07         2.68497e+08
    0.39              515131             763.963        -1.00513e+07         2.68496e+08
    0.41              515062             763.842         -1.0051e+07         2.68496e+08
    0.43              514988             763.715        -1.00505e+07         2.68496e+08
    0.45              514912             763.582        -1.00501e+07         2.68495e+08
    0.47              514832             763.442        -1.00497e+07         2.68495e+08
    0.49              514748             763.297        -1.00492e+07         2.68494e+08
    0.51              514661             763.146        -1.00487e+07         2.68494e+08
    0.53              514571             762.988        -1.00482e+07         2.68493e+08
    0.55              514477             762.825        -1.00476e+07         2.68493e+08
    0.57              514380             762.655        -1.00471e+07         2.68492e+08
    0.59              514279             762.479        -1.00465e+07         2.68491e+08
    0.61              514174             762.298        -1.00459e+07         2.68491e+08
    0.63              514066              762.11        -1.00453e+07          2.6849e+08
    0.65              513955             761.916        -1.00446e+07         2.68489e+08
    0.67              513840             761.716         -1.0044e+07         2.68488e+08
    0.69              513722              761.51        -1.00433e+07         2.68487e+08
    0.71              513600             761.297        -1.00426e+07         2.68486e+08
    0.73              513475             761.079        -1.00419e+07         2.68485e+08
    0.75              513346             760.855        -1.00411e+07         2.68484e+08
    0.77              513214             760.624        -1.00404e+07         2.68482e+08
    0.79              513078             760.387        -1.00396e+07         2.68481e+08
    0.81              512939             760.145        -1.00387e+07         2.68479e+08
    0.83              512796             759.896        -1.00379e+07         2.68478e+08
    0.85              512650             759.641        -1.00371e+07         2.68476e+08
    0.87              512500             759.379        -1.00362e+07         2.68474e+08
    0.89              512347             759.112        -1.00353e+07         2.68472e+08
    0.91              512190             758.839        -1.00343e+07          2.6847e+08
    0.93              512030             758.559        -1.00334e+07         2.68468e+08
    0.95              511866             758.273        -1.00324e+07         2.68465e+08
    0.97              511699             757.982        -1.00314e+07         2.68463e+08
    0.99              511528             757.684        -1.00304e+07          2.6846e+08
    1.01              511354             757.379        -1.00294e+07         2.68457e+08
    1.03              511176             757.069        -1.00283e+07         2.68455e+08
    1.05              510995             756.753        -1.00272e+07         2.68451e+08
    1.07              510810              756.43        -1.00261e+07         2.68448e+08
    1.09              510622             756.101        -1.00249e+07         2.68445e+08
    1.11              510431             755.766        -1.00238e+07         2.68441e+08
    1.13              510235             755.425        -1.00226e+07         2.68437e+08
    1.15              510037             755.078        -1.00214e+07         2.68433e+08
    1.17              509835             754.724        -1.00201e+07         2.68429e+08
    1.19              509629             754.365        -1.00189e+07         2.68425e+08
    1.21              509420             753.999        -1.00176e+07          2.6842e+08
    1.23              509207             753.627        -1.00163e+07         2.68415e+08
    1.25              508991             753.248        -1.00149e+07          2.6841e+08
    1.27              508771             752.864        -1.00135e+07         2.68405e+08
    1.29              508548             752.473        -1.00121e+07           2.684e+08
    1.31              508322             752.076        -1.00107e+07         2.68394e+08
    1.33              508091             751.673        -1.00093e+07         2.68388e+08
    1.35              507858             751.264        -1.00078e+07         2.68382e+08
    1.37              507621             750.848        -1.00063e+07         2.68375e+08
    1.39              507380             750.426        -1.00048e+07         2.68369e+08
    1.41              507136             749.998        -1.00032e+07         2.68361e+08
    1.43              506888             749.564        -1.00016e+07         2.68354e+08
    1.45              506637             749.123              -1e+07         2.68346e+08
    1.47              506382             748.676        -9.99836e+06         2.68339e+08
    1.49              506124             748.223        -9.99669e+06          2.6833e+08
    1.51              505862             747.764        -9.99499e+06         2.68322e+08
    1.53              505597             747.298        -9.99326e+06         2.68313e+08
    1.55              505328             746.827         -9.9915e+06         2.68304e+08
    1.57              505056             746.348        -9.98971e+06         2.68294e+08
    1.59              504780             745.864        -9.98789e+06         2.68284e+08
    1.61              504501             745.373        -9.98604e+06         2.68274e+08
    1.63              504218             744.876        -9.98416e+06         2.68263e+08
    1.65              503932             744.373        -9.98225e+06         2.68252e+08
    1.67              503642             743.863        -9.98031e+06         2.68241e+08
    1.69              503349             743.348        -9.97834e+06         2.68229e+08
    1.71              503052             742.825        -9.97634e+06         2.68217e+08
    1.73              502752             742.297         -9.9743e+06         2.68204e+08
    1.75              502448             741.762        -9.97224e+06         2.68191e+08
    1.77              502141             741.221        -9.97014e+06         2.68177e+08
    1.79              501830             740.674        -9.96801e+06         2.68164e+08
    1.81              501516              740.12        -9.96584e+06         2.68149e+08
    1.83              501198              739.56        -9.96364e+06         2.68134e+08
    1.85              500876             738.993        -9.96141e+06         2.68119e+08
    1.87              500551             738.421        -9.95915e+06         2.68103e+08
    1.89              500223             737.842        -9.95685e+06         2.68087e+08
    1.91              499891             737.256        -9.95452e+06          2.6807e+08
    1.93              499556             736.664        -9.95215e+06         2.68053e+08
    1.95              499217             736.066        -9.94975e+06         2.68035e+08
    1.97              498874             735.462        -9.94731e+06         2.68017e+08
    1.99              498528             734.851        -9.94484e+06         2.67998e+08
    2.01              498178             734.234        -9.94233e+06         2.67979e+08
    2.03              497825              733.61        -9.93979e+06         2.67959e+08
    2.05              497469              732.98        -9.93721e+06         2.67938e+08
    2.07              497109             732.344        -9.93459e+06         2.67917e+08
    2.09              496745             731.701        -9.93194e+06         2.67895e+08
    2.11              496378             731.052        -9.92924e+06         2.67873e+08
    2.13              496007             730.397        -9.92652e+06          2.6785e+08
    2.15              495633             729.735        -9.92375e+06         2.67827e+08
    2.17              495256             729.067        -9.92095e+06         2.67802e+08
    2.19              494874             728.392         -9.9181e+06         2.67778e+08
    2.21              494490             727.711        -9.91522e+06         2.67752e+08
    2.23              494102             727.024         -9.9123e+06         2.67726e+08
    2.25              493710              726.33        -9.90934e+06         2.67699e+08
    2.27              493315              725.63        -9.90634e+06         2.67672e+08
    2.29              492916             724.923         -9.9033e+06         2.67644e+08
    2.31              492513              724.21        -9.90022e+06         2.67615e+08
    2.33              492108             723.491         -9.8971e+06         2.67585e+08
    2.35              491698             722.765        -9.89394e+06         2.67555e+08
    2.37              491286             722.033        -9.89074e+06         2.67524e+08
    2.39              490869             721.294         -9.8875e+06         2.67492e+08
    2.41              490449             720.549        -9.88421e+06          2.6746e+08
    2.43              490026             719.798        -9.88088e+06         2.67426e+08
    2.45              489599              719.04        -9.87751e+06         2.67392e+08
    2.47              489169             718.275         -9.8741e+06         2.67357e+08
    2.49              488735             717.505        -9.87064e+06         2.67322e+08
    2.51              488297             716.728        -9.86714e+06         2.67285e+08
    2.53              487856             715.944         -9.8636e+06         2.67248e+08
    2.55              487412             715.154        -9.86001e+06         2.67209e+08
    2.57              486964             714.358        -9.85637e+06          2.6717e+08
    2.59              486513             713.555         -9.8527e+06          2.6713e+08
    2.61              486058             712.746        -9.84897e+06          2.6709e+08
    2.63              485599              711.93         -9.8452e+06         2.67048e+08
    2.65              485137             711.108        -9.84139e+06         2.67005e+08
    2.67              484672              710.28        -9.83753e+06         2.66962e+08
    2.69              484203             709.445        -9.83362e+06         2.66917e+08
    2.71              483730             708.603        -9.82967e+06         2.66872e+08
    2.73              483254             707.756        -9.82567e+06         2.66826e+08
    2.75              482775             706.902        -9.82162e+06         2.66779e+08
    2.77              482292             706.041        -9.81752e+06          2.6673e+08
    2.79              481805             705.174        -9.81338e+06         2.66681e+08
    2.81              481315             704.301        -9.80918e+06         2.66631e+08
    2.83              480822             703.421        -9.80494e+06          2.6658e+08
    2.85              480325             702.535        -9.80065e+06         2.66527e+08
    2.87              479825             701.642        -9.79631e+06         2.66474e+08
    2.89              479321             700.743        -9.79192e+06          2.6642e+08
    2.91              478813             699.838        -9.78748e+06         2.66364e+08
    2.93              478302             698.926        -9.78298e+06         2.66308e+08
    2.95              477788             698.008        -9.77844e+06          2.6625e+08
    2.97              477270             697.084        -9.77385e+06         2.66192e+08
    2.99              476749             696.153         -9.7692e+06         2.66132e+08
    3.01              476224             695.216         -9.7645e+06         2.66071e+08
    3.03              475696             694.272        -9.75975e+06         2.66009e+08
    3.05              475164             693.322        -9.75495e+06         2.65946e+08
    3.07              474629             692.366        -9.75009e+06         2.65882e+08
    3.09              474090             691.403        -9.74518e+06         2.65816e+08
    3.11              473548             690.434        -9.74022e+06         2.65749e+08
    3.13              473002             689.458        -9.73521e+06         2.65682e+08
    3.15              472453             688.476        -9.73013e+06         2.65613e+08
    3.17              471900             687.488        -9.72501e+06         2.65542e+08
    3.19              471344             686.494        -9.71983e+06         2.65471e+08
    3.21              470785             685.493        -9.71459e+06         2.65398e+08
    3.23              470222             684.486         -9.7093e+06         2.65324e+08
    3.25              469655             683.473        -9.70395e+06         2.65249e+08
    3.27              469086             682.453        -9.69855e+06         2.65172e+08
    3.29              468512             681.427        -9.69309e+06         2.65094e+08
    3.31              467936             680.394        -9.68757e+06         2.65015e+08
    3.33              467355             679.356          -9.682e+06         2.64935e+08
    3.35              466772             678.311        -9.67636e+06         2.64853e+08
    3.37              466185              677.26        -9.67067e+06          2.6477e+08
    3.39              465594             676.202        -9.66493e+06         2.64685e+08
    3.41              465001             675.139        -9.65912e+06         2.64599e+08
    3.43              464403             674.069        -9.65325e+06         2.64512e+08
    3.45              463803             672.993        -9.64733e+06         2.64424e+08
    3.47              463198              671.91        -9.64134e+06         2.64333e+08
    3.49              462591             670.822         -9.6353e+06         2.64242e+08
    3.51              461980             669.727        -9.62919e+06         2.64149e+08
    3.53              461366             668.626        -9.62303e+06         2.64055e+08
    3.55              460748             667.519         -9.6168e+06         2.63959e+08
    3.57              460127             666.405        -9.61051e+06         2.63862e+08
    3.59              459502             665.286        -9.60416e+06         2.63763e+08
    3.61              458874              664.16        -9.59775e+06         2.63663e+08
    3.63              458243             663.028        -9.59128e+06         2.63561e+08
    3.65              457608             661.891        -9.58474e+06         2.63458e+08
    3.67              456970             660.747        -9.57814e+06         2.63353e+08
    3.69              456329             659.596        -9.57148e+06         2.63247e+08
    3.71              455684              658.44        -9.56476e+06         2.63139e+08
    3.73              455036             657.278        -9.55797e+06         2.63029e+08
    3.75              454385             656.109        -9.55111e+06         2.62918e+08
    3.77              453730             654.935         -9.5442e+06         2.62806e+08
    3.79              453072             653.755        -9.53722e+06         2.62691e+08
    3.81              452410             652.568        -9.53017e+06         2.62576e+08
    3.83              451745             651.376        -9.52306e+06         2.62458e+08
    3.85              451077             650.177        -9.51588e+06         2.62339e+08
    3.87              450406             648.973        -9.50864e+06         2.62218e+08
    3.89              449731             647.762        -9.50133e+06         2.62096e+08
    3.91              449053             646.546        -9.49395e+06         2.61972e+08
    3.93              448372             645.324        -9.48651e+06         2.61846e+08
    3.95              447687             644.096          -9.479e+06         2.61719e+08
    3.97              446999             642.862        -9.47143e+06         2.61589e+08
    3.99              446308             641.622        -9.46379e+06         2.61458e+08
    4.01              445613             640.376        -9.45607e+06         2.61326e+08
    4.03              444915             639.124         -9.4483e+06         2.61191e+08
    4.05              444214             637.867        -9.44045e+06         2.61055e+08
    4.07              443510             636.604        -9.43253e+06         2.60917e+08
    4.09              442802             635.334        -9.42455e+06         2.60778e+08
    4.11              442091              634.06        -9.41649e+06         2.60636e+08
    4.13              441377             632.779        -9.40837e+06         2.60493e+08
    4.15              440660             631.493        -9.40018e+06         2.60348e+08
    4.17              439939             630.201        -9.39192e+06         2.60201e+08
    4.19              439216             628.903        -9.38359e+06         2.60052e+08
    4.21              438489               627.6        -9.37518e+06         2.59902e+08
    4.23              437758             626.291        -9.36671e+06         2.59749e+08
    4.25              437025             624.976        -9.35817e+06         2.59595e+08
    4.27              436289             623.656        -9.34955e+06         2.59439e+08
    4.29              435549              622.33        -9.34087e+06         2.59281e+08
    4.31              434806             620.999        -9.33211e+06         2.59121e+08
    4.33              434060             619.662        -9.32328e+06         2.58959e+08
    4.35              433311             618.319        -9.31438e+06         2.58795e+08
    4.37              432558             616.972         -9.3054e+06          2.5863e+08
    4.39              431803             615.618        -9.29636e+06         2.58462e+08
    4.41              431044             614.259        -9.28724e+06         2.58293e+08
    4.43              430282             612.895        -9.27805e+06         2.58121e+08
    4.45              429517             611.526        -9.26879e+06         2.57947e+08
    4.47              428749             610.151        -9.25945e+06         2.57772e+08
    4.49              427978              608.77        -9.25004e+06         2.57595e+08
    4.51              427204             607.385        -9.24055e+06         2.57415e+08
    4.53              426427             605.994        -9.23099e+06         2.57234e+08
    4.55              425646             604.598        -9.22136e+06          2.5705e+08
    4.57              424863             603.196        -9.21166e+06         2.56865e+08
    4.59              424077             601.789        -9.20187e+06         2.56677e+08
    4.61              423287             600.378        -9.19202e+06         2.56487e+08
    4.63              422495             598.961        -9.18209e+06         2.56296e+08
    4.65              421699             597.539        -9.17208e+06         2.56102e+08
    4.67              420901             596.111          -9.162e+06         2.55906e+08
    4.69              420099             594.679        -9.15185e+06         2.55708e+08
    4.71              419295             593.242        -9.14162e+06         2.55508e+08
    4.73              418487             591.799        -9.13131e+06         2.55306e+08
    4.75              417677             590.352        -9.12093e+06         2.55102e+08
    4.77              416863               588.9        -9.11047e+06         2.54896e+08
    4.79              416047             587.443        -9.09994e+06         2.54687e+08
    4.81              415227             585.981        -9.08932e+06         2.54477e+08
    4.83              414405             584.514        -9.07864e+06         2.54264e+08
    4.85              413580             583.042        -9.06787e+06         2.54049e+08
    4.87              412752             581.565        -9.05704e+06         2.53832e+08
    4.89              411921             580.084        -9.04612e+06         2.53613e+08
    4.91              411087             578.598        -9.03513e+06         2.53392e+08
    4.93              410251             577.107        -9.02406e+06         2.53168e+08
    4.95              409411             575.612        -9.01291e+06         2.52942e+08
    4.97              408569             574.112        -9.00168e+06         2.52714e+08
    4.99              407723             572.607        -8.99038e+06         2.52484e+08
    5.01              406875             571.098          -8.979e+06         2.52252e+08
    5.03              406025             569.584        -8.96755e+06         2.52017e+08
    5.05              405171             568.066        -8.95601e+06         2.51781e+08
    5.07              404315             566.543         -8.9444e+06         2.51542e+08
    5.09              403455             565.016        -8.93271e+06           2.513e+08
    5.11              402594             563.485        -8.92095e+06         2.51057e+08
    5.13              401729             561.949         -8.9091e+06         2.50811e+08
    5.15              400862             560.409        -8.89718e+06         2.50563e+08
    5.17              399991             558.864        -8.88518e+06         2.50313e+08
    5.19              399119             557.315         -8.8731e+06          2.5006e+08
    5.21              398243             555.762        -8.86094e+06         2.49805e+08
    5.23              397365             554.205        -8.84871e+06         2.49548e+08
    5.25              396484             552.644        -8.83639e+06         2.49289e+08
    5.27              395601             551.079          -8.824e+06         2.49027e+08
    5.29              394715             549.509        -8.81153e+06         2.48763e+08
    5.31              393826             547.936        -8.79899e+06         2.48497e+08
    5.33              392935             546.359        -8.78636e+06         2.48229e+08
    5.35              392041             544.777        -8.77366e+06         2.47958e+08
    5.37              391144             543.192        -8.76087e+06         2.47684e+08
    5.39              390245             541.603        -8.74801e+06         2.47409e+08
    5.41              389344              540.01        -8.73507e+06         2.47131e+08
    5.43              388440             538.413        -8.72206e+06         2.46851e+08
    5.45              387533             536.813        -8.70896e+06         2.46568e+08
    5.47              386624             535.209        -8.69579e+06         2.46284e+08
    5.49              385713             533.601        -8.68253e+06         2.45996e+08
    5.51              384799              531.99         -8.6692e+06         2.45707e+08
    5.53              383882             530.375         -8.6558e+06         2.45415e+08
    5.55              382963             528.756        -8.64231e+06         2.45121e+08
    5.57              382042             527.134        -8.62874e+06         2.44824e+08
    5.59              381118             525.509         -8.6151e+06         2.44525e+08
    5.61              380192              523.88        -8.60138e+06         2.44224e+08
    5.63              379264             522.248        -8.58758e+06          2.4392e+08
    5.65              378333             520.613         -8.5737e+06         2.43614e+08
    5.67              377400             518.974        -8.55975e+06         2.43306e+08
    5.69              376465             517.332        -8.54572e+06         2.42995e+08
    5.71              375527             515.687        -8.53161e+06         2.42682e+08
    5.73              374587             514.038        -8.51742e+06         2.42367e+08
    5.75              373645             512.387        -8.50315e+06         2.42049e+08
    5.77              372700             510.733        -8.48881e+06         2.41729e+08
    5.79              371753             509.075        -8.47439e+06         2.41406e+08
    5.81              370805             507.415        -8.45989e+06         2.41081e+08
    5.83              369853             505.751        -8.44532e+06         2.40754e+08
    5.85              368900             504.085        -8.43067e+06         2.40424e+08
    5.87              367945             502.416        -8.41594e+06         2.40092e+08
    5.89              366987             500.745        -8.40114e+06         2.39757e+08
    5.91              366028              499.07        -8.38626e+06          2.3942e+08
    5.93              365066             497.393         -8.3713e+06         2.39081e+08
    5.95              364102             495.713        -8.35626e+06         2.38739e+08
    5.97              363136             494.031        -8.34115e+06         2.38395e+08
    5.99              362168             492.346        -8.32597e+06         2.38049e+08
    6.01              361198             490.659        -8.31071e+06           2.377e+08
    6.03              360226             488.969        -8.29537e+06         2.37349e+08
    6.05              359253             487.277        -8.27996e+06         2.36995e+08
    6.07              358277             485.582        -8.26447e+06         2.36639e+08
    6.09              357299             483.886         -8.2489e+06         2.36281e+08
    6.11              356319             482.187        -8.23327e+06          2.3592e+08
    6.13              355338             480.485        -8.21755e+06         2.35557e+08
    6.15              354354             478.782        -8.20177e+06         2.35192e+08
    6.17              353369             477.077         -8.1859e+06         2.34824e+08
    6.19              352382             475.369        -8.16997e+06         2.34454e+08
    6.21              351393              473.66        -8.15396e+06         2.34081e+08
    6.23              350402             471.948        -8.13787e+06         2.33706e+08
    6.25              349409             470.235        -8.12172e+06         2.33329e+08
    6.27              348415              468.52        -8.10549e+06         2.32949e+08
    6.29              347419             466.803        -8.08919e+06         2.32567e+08
    6.31              346421             465.084        -8.07281e+06         2.32183e+08
    6.33              345422             463.364        -8.05636e+06         2.31796e+08
    6.35              344421             461.642        -8.03984e+06         2.31407e+08
    6.37              343418             459.919        -8.02325e+06         2.31016e+08
    6.39              342414             458.194        -8.00659e+06         2.30622e+08
    6.41              341408             456.467        -7.98985e+06         2.30226e+08
    6.43              340400             454.739        -7.97305e+06         2.29828e+08
    6.45              339391              453.01        -7.95617e+06         2.29427e+08
    6.47              338381             451.279        -7.93922e+06         2.29024e+08
    6.49              337369             449.548        -7.92221e+06         2.28619e+08
    6.51              336355             447.814        -7.90512e+06         2.28211e+08
    6.53              335340              446.08        -7.88796e+06         2.27801e+08
    6.55              334324             444.345        -7.87074e+06         2.27389e+08
    6.57              333306             442.609        -7.85345e+06         2.26974e+08
    6.59              332287             440.871        -7.83608e+06         2.26558e+08
    6.61              331266             439.133        -7.81865e+06         2.26139e+08
    6.63              330244             437.394        -7.80115e+06         2.25717e+08
    6.65              329221             435.654        -7.78359e+06         2.25294e+08
    6.67              328196             433.913        -7.76595e+06         2.24868e+08
    6.69              327170             432.171        -7.74825e+06          2.2444e+08
    6.71              326143             430.429        -7.73049e+06         2.24009e+08
    6.73              325115             428.686        -7.71265e+06         2.23577e+08
    6.75              324085             426.943        -7.69476e+06         2.23142e+08
    6.77              323055             425.199        -7.67679e+06         2.22705e+08
    6.79              322023             423.455        -7.65876e+06         2.22266e+08
    6.81              320990              421.71        -7.64067e+06         2.21824e+08
    6.83              319956             419.965        -7.62251e+06          2.2138e+08
    6.85              318921             418.219        -7.60429e+06         2.20935e+08
    6.87              317884             416.474        -7.58601e+06         2.20487e+08
    6.89              316847             414.728        -7.56766e+06         2.20036e+08
    6.91              315809             412.982        -7.54925e+06         2.19584e+08
    6.93              314770             411.236        -7.53078e+06         2.19129e+08
    6.95              313730              409.49        -7.51225e+06         2.18673e+08
    6.97              312689             407.744        -7.49366e+06         2.18214e+08
    6.99              311647             405.998          -7.475e+06         2.17753e+08
    7.01              310604             404.253        -7.45629e+06          2.1729e+08
    7.03              309560             402.507        -7.43751e+06         2.16825e+08
    7.05              308516             400.762        -7.41868e+06         2.16358e+08
    7.07              307470             399.017        -7.39979e+06         2.15888e+08
    7.09              306424             397.272        -7.38084e+06         2.15417e+08
    7.11              305378             395.528        -7.36183e+06         2.14943e+08
    7.13              304330             393.785        -7.34276e+06         2.14468e+08
    7.15              303282             392.042        -7.32364e+06          2.1399e+08
    7.17              302233             390.299        -7.30446e+06         2.13511e+08
    7.19              301183             388.557        -7.28523e+06         2.13029e+08
    7.21              300133             386.816        -7.26594e+06         2.12545e+08
    7.23              299083             385.076        -7.24659e+06          2.1206e+08
    7.25              298031             383.336        -7.22719e+06         2.11572e+08
    7.27              296980             381.598        -7.20774e+06         2.11083e+08
    7.29              295927              379.86        -7.18823e+06         2.10591e+08
    7.31              294875             378.123        -7.16867e+06         2.10098e+08
    7.33              293821             376.388        -7.14906e+06         2.09602e+08
    7.35              292768             374.653         -7.1294e+06         2.09105e+08
    7.37              291714              372.92        -7.10968e+06         2.08606e+08
    7.39              290659             371.187        -7.08992e+06         2.08105e+08
    7.41              289605             369.456         -7.0701e+06         2.07602e+08
    7.43              288550             367.727        -7.05024e+06         2.07097e+08
    7.45              287494             365.999        -7.03032e+06          2.0659e+08
    7.47              286439             364.272        -7.01036e+06         2.06081e+08
    7.49              285383             362.546        -6.99035e+06         2.05571e+08
    7.51              284327             360.823        -6.97029e+06         2.05059e+08
    7.53              283271               359.1        -6.95019e+06         2.04545e+08
    7.55              282214              357.38        -6.93004e+06         2.04029e+08
    7.57              281158             355.661        -6.90985e+06         2.03512e+08
    7.59              280101             353.944        -6.88961e+06         2.02992e+08
    7.61              279045             352.229        -6.86932e+06         2.02471e+08
    7.63              277988             350.515        -6.84899e+06         2.01949e+08
    7.65              276932             348.804        -6.82862e+06         2.01424e+08
    7.67              275875             347.094        -6.80821e+06         2.00898e+08
    7.69              274818             345.387        -6.78775e+06          2.0037e+08
    7.71              273762             343.681        -6.76726e+06         1.99841e+08
    7.73              272706             341.978        -6.74672e+06          1.9931e+08
    7.75              271649             340.277        -6.72614e+06         1.98777e+08
    7.77              270593             338.579        -6.70553e+06         1.98243e+08
    7.79              269537             336.882        -6.68487e+06         1.97707e+08
    7.81              268482             335.188        -6.66418e+06          1.9717e+08
    7.83              267426             333.496        -6.64345e+06         1.96631e+08
    7.85              266371             331.807        -6.62268e+06          1.9609e+08
    7.87              265316              330.12        -6.60188e+06         1.95548e+08
    7.89              264262             328.436        -6.58104e+06         1.95004e+08
    7.91              263208             326.755        -6.56017e+06         1.94459e+08
    7.93              262154             325.076        -6.53926e+06         1.93913e+08
    7.95              261101               323.4        -6.51832e+06         1.93365e+08
    7.97              260048             321.727        -6.49734e+06         1.92815e+08
    7.99              258996             320.056        -6.47634e+06         1.92264e+08
    8.01              257944             318.389         -6.4553e+06         1.91712e+08
    8.03              256892             316.724        -6.43423e+06         1.91159e+08
    8.05              255842             315.062        -6.41314e+06         1.90604e+08
    8.07              254792             313.404        -6.39201e+06         1.90047e+08
    8.09              253742             311.748        -6.37085e+06          1.8949e+08
    8.11              252693             310.096        -6.34967e+06         1.88931e+08
    8.13              251645             308.447        -6.32846e+06          1.8837e+08
    8.15              250597             306.801        -6.30722e+06         1.87809e+08
    8.17              249551             305.158        -6.28596e+06         1.87246e+08
    8.19              248505             303.519        -6.26467e+06         1.86682e+08
    8.21              247459             301.883        -6.24336e+06         1.86117e+08
    8.23              246415             300.251        -6.22202e+06         1.85551e+08
    8.25              245371             298.622        -6.20066e+06         1.84983e+08
    8.27              244329             296.997        -6.17928e+06         1.84415e+08
    8.29              243287             295.375        -6.15788e+06         1.83845e+08
    8.31              242246             293.757        -6.13645e+06         1.83274e+08
    8.33              241206             292.143        -6.11501e+06         1.82702e+08
    8.35              240167             290.532        -6.09355e+06         1.82129e+08
    8.37              239130             288.925        -6.07206e+06         1.81555e+08
    8.39              238093             287.322        -6.05056e+06          1.8098e+08
    8.41              237057             285.723        -6.02904e+06         1.80403e+08
    8.43              236022             284.128        -6.00751e+06         1.79826e+08
    8.45              234989             282.537        -5.98596e+06         1.79248e+08
    8.47              233957              280.95         -5.9644e+06         1.78669e+08
    8.49              232925             279.367        -5.94282e+06         1.78089e+08
    8.51              231895             277.788        -5.92122e+06         1.77508e+08
    8.53              230867             276.214        -5.89962e+06         1.76927e+08
    8.55              229839             274.643          -5.878e+06         1.76344e+08
    8.57              228813             273.077        -5.85637e+06          1.7576e+08
    8.59              227789             271.515        -5.83473e+06         1.75176e+08
    8.61              226765             269.958        -5.81308e+06         1.74591e+08
    8.63              225743             268.404        -5.79143e+06         1.74005e+08
    8.65              224723             266.856        -5.76976e+06         1.73419e+08
    8.67              223703             265.312        -5.74809e+06         1.72831e+08
    8.69              222686             263.772         -5.7264e+06         1.72243e+08
    8.71              221669             262.237        -5.70472e+06         1.71655e+08
    8.73              220655             260.707        -5.68303e+06         1.71065e+08
    8.75              219642             259.181        -5.66133e+06         1.70475e+08
    8.77              218630              257.66        -5.63963e+06         1.69885e+08
    8.79              217620             256.144        -5.61793e+06         1.69293e+08
    8.81              216612             254.632        -5.59622e+06         1.68702e+08
    8.83              215605             253.126        -5.57451e+06         1.68109e+08
    8.85              214600             251.624         -5.5528e+06         1.67516e+08
    8.87              213597             250.127         -5.5311e+06         1.66923e+08
    8.89              212595             248.635        -5.50939e+06         1.66329e+08
    8.91              211596             247.148        -5.48768e+06         1.65735e+08
    8.93              210598             245.667        -5.46598e+06          1.6514e+08
    8.95              209602              244.19        -5.44428e+06         1.64545e+08
    8.97              208607             242.718        -5.42258e+06         1.63949e+08
    8.99              207615             241.252        -5.40089e+06         1.63353e+08
    9.01              206624             239.791        -5.37921e+06         1.62757e+08
    9.03              205636             238.335        -5.35753e+06          1.6216e+08
    9.05              204649             236.884        -5.33585e+06         1.61563e+08
    9.07              203665             235.439        -5.31419e+06         1.60966e+08
    9.09              202682             233.999        -5.29253e+06         1.60368e+08
    9.11              201701             232.564        -5.27088e+06         1.59771e+08
    9.13              200723             231.135        -5.24924e+06         1.59173e+08
    9.15              199746             229.711        -5.22761e+06         1.58574e+08
    9.17              198772             228.293          -5.206e+06         1.57976e+08
    9.19              197800              226.88        -5.18439e+06         1.57378e+08
    9.21              196829             225.473         -5.1628e+06         1.56779e+08
    9.23              195862             224.072        -5.14122e+06          1.5618e+08
    9.25              194896             222.676        -5.11966e+06         1.55581e+08
    9.27              193932             221.286        -5.09811e+06         1.54983e+08
    9.29              192971             219.901        -5.07658e+06         1.54384e+08
    9.31              192012             218.523        -5.05506e+06         1.53785e+08
    9.33              191055              217.15        -5.03357e+06         1.53186e+08
    9.35              190101             215.783        -5.01209e+06         1.52587e+08
    9.37              189149             214.421        -4.99062e+06         1.51988e+08
    9.39              188199             213.066        -4.96918e+06          1.5139e+08
    9.41              187252             211.717        -4.94776e+06         1.50791e+08
    9.43              186307             210.373        -4.92636e+06         1.50193e+08
    9.45              185365             209.035        -4.90498e+06         1.49594e+08
    9.47              184425             207.704        -4.88363e+06         1.48996e+08
    9.49              183488             206.378         -4.8623e+06         1.48398e+08
    9.51              182553             205.059        -4.84099e+06           1.478e+08
    9.53              181621             203.745        -4.81971e+06         1.47203e+08
    9.55              180691             202.438        -4.79845e+06         1.46606e+08
    9.57              179764             201.137        -4.77722e+06         1.46009e+08
    9.59              178839             199.842        -4.75601e+06         1.45412e+08
    9.61              177917             198.553        -4.73483e+06         1.44816e+08
    9.63              176998             197.271        -4.71369e+06          1.4422e+08
    9.65              176081             195.994        -4.69257e+06         1.43624e+08
    9.67              175167             194.724        -4.67148e+06         1.43029e+08
    9.69              174256             193.461        -4.65042e+06         1.42434e+08
    9.71              173347             192.203        -4.62939e+06          1.4184e+08
    9.73              172441             190.952         -4.6084e+06         1.41246e+08
    9.75              171538             189.708        -4.58743e+06         1.40653e+08
    9.77              170638             188.469         -4.5665e+06          1.4006e+08
    9.79              169741             187.237        -4.54561e+06         1.39467e+08
    9.81              168846             186.012        -4.52475e+06         1.38876e+08
    9.83              167954             184.793        -4.50392e+06         1.38285e+08
    9.85              167066             183.581        -4.48313e+06         1.37694e+08
    9.87              166180             182.375        -4.46238e+06         1.37104e+08
    9.89              165297             181.175        -4.44166e+06         1.36515e+08
    9.91              164417             179.982        -4.42099e+06         1.35926e+08
    9.93              163539             178.796        -4.40035e+06         1.35338e+08
    9.95              162665             177.617        -4.37975e+06         1.34751e+08
    9.97              161794             176.443        -4.35919e+06         1.34164e+08
    9.99              160926             175.277        -4.33867e+06         1.33578e+08
   10.01              160061             174.117         -4.3182e+06         1.32993e+08
   10.03              159199             172.964        -4.29776e+06         1.32409e+08
   10.05              158339             171.818        -4.27737e+06         1.31825e+08
   10.07              157483             170.678        -4.25703e+06         1.31243e+08
   10.09              156631             169.545        -4.23672e+06         1.30661e+08
   10.11              155781             168.419        -4.21646e+06          1.3008e+08
   10.13              154934             167.299        -4.19625e+06           1.295e+08
   10.15              154091             166.186        -4.17608e+06         1.28921e+08
   10.17              153250              165.08        -4.15596e+06         1.28343e+08
   10.19              152413             163.981        -4.13589e+06         1.27766e+08
   10.21              151579             162.889        -4.11586e+06          1.2719e+08
   10.23              150748             161.803        -4.09588e+06         1.26614e+08
   10.25              149921             160.724        -4.07595e+06          1.2604e+08
   10.27              149097             159.652        -4.05607e+06         1.25467e+08
   10.29              148276             158.587        -4.03625e+06         1.24895e+08
   10.31              147458             157.529        -4.01647e+06         1.24324e+08
   10.33              146643             156.478        -3.99674e+06         1.23754e+08
   10.35              145832             155.433        -3.97707e+06         1.23185e+08
   10.37              145024             154.396        -3.95745e+06         1.22618e+08
   10.39              144220             153.365        -3.93788e+06         1.22051e+08
   10.41              143419             152.341        -3.91836e+06         1.21486e+08
   10.43              142621             151.325         -3.8989e+06         1.20922e+08
   10.45              141827             150.315         -3.8795e+06         1.20359e+08
   10.47              141036             149.312        -3.86015e+06         1.19797e+08
   10.49              140248             148.316        -3.84085e+06         1.19236e+08
   10.51              139464             147.327        -3.82161e+06         1.18677e+08
   10.53              138683             146.345        -3.80243e+06         1.18119e+08
   10.55              137905              145.37        -3.78331e+06         1.17563e+08
   10.57              137132             144.402        -3.76424e+06         1.17008e+08
   10.59              136361             143.441        -3.74524e+06         1.16454e+08
   10.61              135594             142.486        -3.72629e+06         1.15901e+08
   10.63              134830             141.539         -3.7074e+06          1.1535e+08
   10.65              134070             140.599        -3.68857e+06           1.148e+08
   10.67              133314             139.666        -3.66981e+06         1.14252e+08
   10.69              132561             138.739         -3.6511e+06         1.13705e+08
   10.71              131811              137.82        -3.63246e+06         1.13159e+08
   10.73              131065             136.908        -3.61388e+06         1.12615e+08
   10.75              130323             136.003        -3.59536e+06         1.12073e+08
   10.77              129584             135.104         -3.5769e+06         1.11532e+08
   10.79              128849             134.213        -3.55851e+06         1.10992e+08
   10.81              128117             133.329        -3.54018e+06         1.10454e+08
   10.83              127389             132.452        -3.52191e+06         1.09918e+08
   10.85              126664             131.581        -3.50371e+06         1.09383e+08
   10.87              125943             130.718        -3.48558e+06         1.08849e+08
   10.89              125226             129.862        -3.46751e+06         1.08318e+08
   10.91              124512             129.012        -3.44951e+06         1.07787e+08
   10.93              123802              128.17        -3.43157e+06         1.07259e+08
   10.95              123096             127.334         -3.4137e+06         1.06732e+08
   10.97              122393             126.506         -3.3959e+06         1.06207e+08
   10.99              121694             125.684        -3.37817e+06         1.05683e+08
   11.01              120998              124.87        -3.36051e+06         1.05161e+08
   11.03              120306             124.062        -3.34291e+06         1.04641e+08
   11.05              119618             123.262        -3.32538e+06         1.04123e+08
   11.07              118933             122.468        -3.30792e+06         1.03606e+08
   11.09              118252             121.681        -3.29054e+06         1.03091e+08
   11.11              117575             120.901        -3.27322e+06         1.02578e+08
   11.13              116902             120.128        -3.25597e+06         1.02066e+08
   11.15              116232             119.362         -3.2388e+06         1.01556e+08
   11.17              115565             118.603        -3.22169e+06         1.01049e+08
   11.19              114903             117.851        -3.20466e+06         1.00542e+08
   11.21              114244             117.105        -3.18769e+06         1.00038e+08
   11.23              113589             116.367        -3.17081e+06         9.95358e+07
   11.25              112938             115.635        -3.15399e+06         9.90352e+07
   11.27              112290              114.91        -3.13724e+06         9.85364e+07
   11.29              111646             114.192        -3.12057e+06         9.80395e+07
   11.31              111006             113.481        -3.10398e+06         9.75445e+07
   11.33              110369             112.777        -3.08745e+06         9.70514e+07
   11.35              109737             112.079          -3.071e+06         9.65602e+07
   11.37              109108             111.388        -3.05463e+06         9.60709e+07
   11.39              108482             110.704        -3.03833e+06         9.55836e+07
   11.41              107861             110.026         -3.0221e+06         9.50982e+07
   11.43              107243             109.356        -3.00595e+06         9.46147e+07
   11.45              106629             108.692        -2.98988e+06         9.41332e+07
   11.47              106018             108.035        -2.97388e+06         9.36536e+07
   11.49              105412             107.384        -2.95796e+06         9.31761e+07
   11.51              104809              106.74        -2.94211e+06         9.27005e+07
   11.53              104209             106.103        -2.92634e+06         9.22269e+07
   11.55              103614             105.472        -2.91065e+06         9.17554e+07
   11.57              103022             104.848        -2.89503e+06         9.12858e+07
   11.59              102434              104.23        -2.87949e+06         9.08183e+07
   11.61              101850             103.619        -2.86403e+06         9.03528e+07
   11.63              101269             103.015        -2.84864e+06         8.98894e+07
   11.65              100692             102.417        -2.83333e+06          8.9428e+07
   11.67              100119             101.826         -2.8181e+06         8.89687e+07
   11.69             99549.9             101.241        -2.80295e+06         8.85114e+07
   11.71             98984.3             100.662        -2.78788e+06         8.80563e+07
   11.73             98422.4              100.09        -2.77288e+06         8.76032e+07
   11.75             97864.2             99.5247        -2.75797e+06         8.71522e+07
   11.77             97309.7             98.9654        -2.74313e+06         8.67033e+07
   11.79             96758.9             98.4125        -2.72837e+06         8.62565e+07
   11.81             96211.8              97.866        -2.71369e+06         8.58119e+07
   11.83             95668.5             97.3257        -2.69909e+06         8.53693e+07
   11.85             95128.8             96.7918        -2.68457e+06         8.49289e+07
   11.87             94592.8             96.2641        -2.67013e+06         8.44907e+07
   11.89             94060.6             95.7426        -2.65577e+06         8.40545e+07
   11.91               93532             95.2274        -2.64148e+06         8.36206e+07
   11.93             93007.1             94.7183        -2.62728e+06         8.31887e+07
   11.95             92485.9             94.2153        -2.61316e+06         8.27591e+07
   11.97             91968.4             93.7185        -2.59911e+06         8.23316e+07
   11.99             91454.6             93.2278        -2.58515e+06         8.19063e+07
   12.01             90944.4             92.7432        -2.57127e+06         8.14831e+07
   12.03             90437.9             92.2646        -2.55746e+06         8.10621e+07
   12.05               89935              91.792        -2.54374e+06         8.06434e+07
   12.07             89435.8             91.3254         -2.5301e+06         8.02268e+07
   12.09             88940.2             90.8647        -2.51653e+06         7.98124e+07
   12.11             88448.3               90.41        -2.50305e+06         7.94002e+07
   12.13               87960             89.9611        -2.48965e+06         7.89902e+07
   12.15             87475.3             89.5181        -2.47633e+06         7.85824e+07
   12.17             86994.3             89.0809        -2.46309e+06         7.81768e+07
   12.19             86516.8             88.6495        -2.44993e+06         7.77735e+07
   12.21               86043             88.2239        -2.43685e+06         7.73723e+07
   12.23             85572.8              87.804        -2.42385e+06         7.69734e+07
   12.25             85106.1             87.3898        -2.41093e+06         7.65767e+07
   12.27               84643             86.9812        -2.39809e+06         7.61822e+07
   12.29             84183.5             86.5783        -2.38533e+06         7.57899e+07
   12.31             83727.6             86.1809        -2.37265e+06         7.53999e+07
   12.33             83275.2             85.7891        -2.36006e+06         7.50121e+07
   12.35             82826.3             85.4029        -2.34754e+06         7.46266e+07
   12.37               82381             85.0221         -2.3351e+06         7.42432e+07
   12.39             81939.2             84.6468        -2.32275e+06         7.38621e+07
   12.41               81501             84.2768        -2.31047e+06         7.34833e+07
   12.43             81066.2             83.9123        -2.29827e+06         7.31067e+07
   12.45             80634.9             83.5531        -2.28616e+06         7.27323e+07
   12.47             80207.2             83.1992        -2.27412e+06         7.23602e+07
   12.49             79782.9             82.8506        -2.26217e+06         7.19903e+07
   12.51               79362             82.5072        -2.25029e+06         7.16226e+07
   12.53             78944.7              82.169         -2.2385e+06         7.12572e+07
   12.55             78530.8             81.8359        -2.22678e+06          7.0894e+07
   12.57             78120.3              81.508        -2.21514e+06         7.05331e+07
   12.59             77713.2             81.1851        -2.20359e+06         7.01744e+07
   12.61             77309.6             80.8673        -2.19211e+06          6.9818e+07
   12.63             76909.3             80.5544        -2.18071e+06         6.94637e+07
   12.65             76512.5             80.2466        -2.16939e+06         6.91118e+07
   12.67               76119             79.9436        -2.15815e+06          6.8762e+07
   12.69             75728.9             79.6455        -2.14699e+06         6.84145e+07
   12.71             75342.1             79.3523        -2.13591e+06         6.80692e+07
   12.73             74958.7             79.0638        -2.12491e+06         6.77262e+07
   12.75             74578.7             78.7801        -2.11398e+06         6.73854e+07
   12.77             74201.9             78.5012        -2.10314e+06         6.70468e+07
   12.79             73828.5             78.2269        -2.09237e+06         6.67105e+07
   12.81             73458.3             77.9572        -2.08168e+06         6.63763e+07
   12.83             73091.4             77.6921        -2.07107e+06         6.60444e+07
   12.85             72727.8             77.4316        -2.06054e+06         6.57147e+07
   12.87             72367.5             77.1755        -2.05008e+06         6.53873e+07
   12.89             72010.4              76.924         -2.0397e+06          6.5062e+07
   12.91             71656.5             76.6768         -2.0294e+06          6.4739e+07
   12.93             71305.8             76.4341        -2.01918e+06         6.44181e+07
   12.95             70958.3             76.1956        -2.00903e+06         6.40995e+07
   12.97               70614             75.9615        -1.99896e+06          6.3783e+07
   12.99             70272.9             75.7316        -1.98896e+06         6.34688e+07
   13.01               69935             75.5059        -1.97905e+06         6.31567e+07
   13.03             69600.2             75.2844        -1.96921e+06         6.28468e+07
   13.05             69268.5              75.067        -1.95944e+06         6.25392e+07
   13.07             68939.9             74.8537        -1.94975e+06         6.22336e+07
   13.09             68614.4             74.6444        -1.94013e+06         6.19303e+07
   13.11             68292.1             74.4392         -1.9306e+06         6.16291e+07
   13.13             67972.7             74.2378        -1.92113e+06         6.13301e+07
   13.15             67656.5             74.0404        -1.91174e+06         6.10333e+07
   13.17             67343.3             73.8468        -1.90243e+06         6.07386e+07
   13.19             67033.1              73.657        -1.89318e+06         6.04461e+07
   13.21             66725.9              73.471        -1.88402e+06         6.01557e+07
   13.23             66421.7             73.2887        -1.87492e+06         5.98674e+07
   13.25             66120.5             73.1101         -1.8659e+06         5.95813e+07
   13.27             65822.2             72.9352        -1.85696e+06         5.92973e+07
   13.29             65526.9             72.7638        -1.84808e+06         5.90154e+07
   13.31             65234.6              72.596        -1.83928e+06         5.87357e+07
   13.33             64945.1             72.4317        -1.83055e+06          5.8458e+07
   13.35             64658.6             72.2709         -1.8219e+06         5.81824e+07
   13.37             64374.9             72.1134        -1.81331e+06          5.7909e+07
   13.39             64094.1             71.9594         -1.8048e+06         5.76376e+07
   13.41             63816.1             71.8086        -1.79636e+06         5.73683e+07
   13.43               63541             71.6612        -1.78799e+06         5.71011e+07
   13.45             63268.7              71.517        -1.77969e+06          5.6836e+07
   13.47             62999.2             71.3759        -1.77146e+06         5.65729e+07
   13.49             62732.5             71.2381         -1.7633e+06         5.63118e+07
   13.51             62468.5             71.1033        -1.75521e+06         5.60528e+07
   13.53             62207.3             70.9716        -1.74719e+06         5.57959e+07
   13.55             61948.8             70.8429        -1.73924e+06          5.5541e+07
   13.57             61693.1             70.7172        -1.73136e+06         5.52881e+07
   13.59               61440             70.5945        -1.72354e+06         5.50372e+07
   13.61             61189.6             70.4746         -1.7158e+06         5.47883e+07
   13.63             60941.9             70.3575        -1.70812e+06         5.45414e+07
   13.65             60696.9             70.2433        -1.70051e+06         5.42965e+07
   13.67             60454.4             70.1318        -1.69297e+06         5.40536e+07
   13.69             60214.6              70.023        -1.68549e+06         5.38127e+07
   13.71             59977.4             69.9169        -1.67808e+06         5.35737e+07
   13.73             59742.7             69.8134        -1.67074e+06         5.33367e+07
   13.75             59510.6             69.7125        -1.66346e+06         5.31017e+07
   13.77             59281.1             69.6142        -1.65625e+06         5.28686e+07
   13.79             59054.1             69.5183         -1.6491e+06         5.26374e+07
   13.81             58829.6              69.425        -1.64202e+06         5.24081e+07
   13.83             58607.6              69.334          -1.635e+06         5.21808e+07
   13.85               58388             69.2454        -1.62805e+06         5.19553e+07
   13.87             58170.9             69.1591        -1.62116e+06         5.17317e+07
   13.89             57956.3             69.0751        -1.61434e+06         5.15101e+07
   13.91               57744             68.9934        -1.60757e+06         5.12903e+07
   13.93             57534.2             68.9139        -1.60087e+06         5.10724e+07
   13.95             57326.7             68.8365        -1.59424e+06         5.08563e+07
   13.97             57121.6             68.7613        -1.58766e+06         5.06421e+07
   13.99             56918.9             68.6881        -1.58115e+06         5.04297e+07
   14.01             56718.5              68.617         -1.5747e+06         5.02191e+07
   14.03             56520.3             68.5479         -1.5683e+06         5.00104e+07
   14.05             56324.5             68.4808        -1.56197e+06         4.98034e+07
   14.07               56131             68.4156         -1.5557e+06         4.95983e+07
   14.09             55939.7             68.3523        -1.54949e+06         4.93949e+07
   14.11             55750.7             68.2908        -1.54334e+06         4.91934e+07
   14.13             55563.8             68.2312        -1.53724e+06         4.89935e+07
   14.15             55379.2             68.1733        -1.53121e+06         4.87955e+07
   14.17             55196.7             68.1171        -1.52523e+06         4.85992e+07
   14.19             55016.5             68.0627        -1.51932e+06         4.84046e+07
   14.21             54838.3             68.0099        -1.51345e+06         4.82118e+07
   14.23             54662.3             67.9587        -1.50765e+06         4.80207e+07
   14.25             54488.4             67.9091         -1.5019e+06         4.78312e+07
   14.27             54316.6              67.861        -1.49621e+06         4.76435e+07
   14.29             54146.9             67.8145        -1.49058e+06         4.74575e+07
   14.31             53979.2             67.7694          -1.485e+06         4.72731e+07
   14.33             53813.6             67.7258        -1.47947e+06         4.70904e+07
   14.35               53650             67.6835          -1.474e+06         4.69093e+07
   14.37             53488.3             67.6427        -1.46859e+06         4.67299e+07
   14.39             53328.7             67.6031        -1.46323e+06         4.65521e+07
   14.41               53171             67.5649        -1.45792e+06         4.63759e+07
   14.43             53015.3             67.5279        -1.45267e+06         4.62014e+07
   14.45             52861.5             67.4922        -1.44746e+06         4.60284e+07
   14.47             52709.6             67.4576        -1.44231e+06          4.5857e+07
   14.49             52559.6             67.4242        -1.43722e+06         4.56872e+07
   14.51             52411.5              67.392        -1.43217e+06          4.5519e+07
   14.53             52265.3             67.3608        -1.42718e+06         4.53523e+07
   14.55             52120.8             67.3307        -1.42223e+06         4.51871e+07
   14.57             51978.2             67.3016        -1.41734e+06         4.50235e+07
   14.59             51837.4             67.2736        -1.41249e+06         4.48614e+07
   14.61             51698.4             67.2465         -1.4077e+06         4.47008e+07
   14.63             51561.1             67.2203        -1.40295e+06         4.45417e+07
   14.65             51425.6              67.195        -1.39826e+06         4.43841e+07
   14.67             51291.9             67.1706        -1.39361e+06         4.42279e+07
   14.69             51159.8             67.1471        -1.38901e+06         4.40732e+07
   14.71             51029.4             67.1244        -1.38446e+06           4.392e+07
   14.73             50900.7             67.1024        -1.37995e+06         4.37682e+07
   14.75             50773.7             67.0813        -1.37549e+06         4.36178e+07
   14.77             50648.3             67.0608        -1.37108e+06         4.34689e+07
   14.79             50524.5             67.0411        -1.36672e+06         4.33213e+07
   14.81             50402.4              67.022        -1.36239e+06         4.31752e+07
   14.83             50281.8             67.0036        -1.35812e+06         4.30304e+07
   14.85             50162.8             66.9857        -1.35389e+06          4.2887e+07
   14.87             50045.3             66.9685         -1.3497e+06          4.2745e+07
   14.89             49929.4             66.9519        -1.34556e+06         4.26043e+07
   14.91               49815             66.9357        -1.34146e+06         4.24649e+07
   14.93             49702.1             66.9201         -1.3374e+06         4.23269e+07
   14.95             49590.7              66.905        -1.33339e+06         4.21902e+07
   14.97             49480.8             66.8903        -1.32942e+06         4.20548e+07
   14.99             49372.3             66.8761        -1.32549e+06         4.19207e+07
   15.01             49265.2             66.8623         -1.3216e+06         4.17878e+07
   15.03             49159.5             66.8489        -1.31776e+06         4.16562e+07
   15.05             49055.3             66.8358        -1.31395e+06         4.15259e+07
   15.07             48952.4             66.8231        -1.31019e+06         4.13969e+07
   15.09             48850.9             66.8106        -1.30646e+06          4.1269e+07
   15.11             48750.8             66.7985        -1.30278e+06         4.11424e+07
   15.13               48652             66.7867        -1.29913e+06          4.1017e+07
   15.15             48554.5              66.775        -1.29552e+06         4.08928e+07
   15.17             48458.2             66.7637        -1.29196e+06         4.07698e+07
   15.19             48363.3             66.7525        -1.28842e+06          4.0648e+07
   15.21             48269.7             66.7415        -1.28493e+06         4.05273e+07
   15.23             48177.3             66.7306        -1.28148e+06         4.04078e+07
   15.25             48086.1             66.7199        -1.27806e+06         4.02894e+07
   15.27             47996.1             66.7093        -1.27467e+06         4.01722e+07
   15.29             47907.4             66.6988        -1.27133e+06         4.00561e+07
   15.31             47819.8             66.6884        -1.26802e+06         3.99411e+07
   15.33             47733.4              66.678        -1.26474e+06         3.98272e+07
   15.35             47648.1             66.6677         -1.2615e+06         3.97144e+07
   15.37               47564             66.6574         -1.2583e+06         3.96026e+07
   15.39               47481             66.6471        -1.25513e+06         3.94919e+07
   15.41             47399.1             66.6368        -1.25199e+06         3.93823e+07
   15.43             47318.3             66.6264        -1.24888e+06         3.92738e+07
   15.45             47238.6              66.616        -1.24581e+06         3.91662e+07
   15.47               47160             66.6055        -1.24277e+06         3.90597e+07
   15.49             47082.3             66.5949        -1.23977e+06         3.89542e+07
   15.51             47005.8             66.5842         -1.2368e+06         3.88497e+07
   15.53             46930.2             66.5734        -1.23385e+06         3.87462e+07
   15.55             46855.6             66.5624        -1.23094e+06         3.86437e+07
   15.57               46782             66.5513        -1.22806e+06         3.85421e+07
   15.59             46709.4               66.54        -1.22521e+06         3.84415e+07
   15.61             46637.7             66.5285        -1.22239e+06         3.83419e+07
   15.63               46567             66.5168        -1.21961e+06         3.82432e+07
   15.65             46497.2             66.5049        -1.21685e+06         3.81454e+07
   15.67             46428.3             66.4928        -1.21412e+06         3.80485e+07
   15.69             46360.3             66.4803        -1.21141e+06         3.79526e+07
   15.71             46293.2             66.4677        -1.20874e+06         3.78575e+07
   15.73               46227             66.4547         -1.2061e+06         3.77633e+07
   15.75             46161.6             66.4414        -1.20348e+06           3.767e+07
   15.77               46097             66.4279        -1.20089e+06         3.75776e+07
   15.79             46033.3              66.414        -1.19833e+06          3.7486e+07
   15.81             45970.4             66.3998        -1.19579e+06         3.73953e+07
   15.83             45908.3             66.3852        -1.19328e+06         3.73054e+07
   15.85               45847             66.3702         -1.1908e+06         3.72163e+07
   15.87             45786.4             66.3549        -1.18834e+06         3.71281e+07
   15.89             45726.6             66.3392        -1.18591e+06         3.70406e+07
   15.91             45667.6             66.3231         -1.1835e+06          3.6954e+07
   15.93             45609.3             66.3065        -1.18112e+06         3.68681e+07
   15.95             45551.7             66.2896        -1.17876e+06          3.6783e+07
   15.97             45494.8             66.2722        -1.17643e+06         3.66987e+07
   15.99             45438.6             66.2543        -1.17412e+06         3.66151e+07
   16.01               45383              66.236        -1.17183e+06         3.65323e+07
   16.03             45328.2             66.2172        -1.16957e+06         3.64502e+07
   16.05               45274              66.198        -1.16732e+06         3.63689e+07
   16.07             45220.4             66.1782        -1.16511e+06         3.62883e+07
   16.09             45167.5             66.1579        -1.16291e+06         3.62084e+07
   16.11             45115.2             66.1371        -1.16074e+06         3.61291e+07
   16.13             45063.5             66.1158        -1.15859e+06         3.60506e+07
   16.15             45012.4              66.094        -1.15646e+06         3.59728e+07
   16.17             44961.9             66.0716        -1.15435e+06         3.58956e+07
   16.19             44911.9             66.0486        -1.15226e+06         3.58192e+07
   16.21             44862.5             66.0251        -1.15019e+06         3.57433e+07
   16.23             44813.7              66.001        -1.14814e+06         3.56681e+07
   16.25             44765.4             65.9763        -1.14611e+06         3.55936e+07
   16.27             44717.6              65.951         -1.1441e+06         3.55197e+07
   16.29             44670.3             65.9251        -1.14211e+06         3.54464e+07
   16.31             44623.6             65.8986        -1.14014e+06         3.53737e+07
   16.33             44577.3             65.8715        -1.13819e+06         3.53017e+07
   16.35             44531.5             65.8438        -1.13626e+06         3.52302e+07
   16.37             44486.2             65.8154        -1.13435e+06         3.51593e+07
   16.39             44441.3             65.7864        -1.13245e+06          3.5089e+07
   16.41             44396.9             65.7567        -1.13057e+06         3.50193e+07
   16.43             44352.9             65.7263        -1.12871e+06         3.49502e+07
   16.45             44309.3             65.6953        -1.12686e+06         3.48816e+07
   16.47             44266.2             65.6637        -1.12504e+06         3.48135e+07
   16.49             44223.4             65.6313        -1.12322e+06          3.4746e+07
   16.51             44181.1             65.5982        -1.12143e+06         3.46791e+07
   16.53             44139.2             65.5645        -1.11965e+06         3.46126e+07
   16.55             44097.6               65.53        -1.11789e+06         3.45467e+07
   16.57             44056.4             65.4949        -1.11614e+06         3.44813e+07
   16.59             44015.5              65.459        -1.11441e+06         3.44164e+07
   16.61               43975             65.4224        -1.11269e+06          3.4352e+07
   16.63             43934.9             65.3851        -1.11099e+06         3.42881e+07
   16.65               43895              65.347        -1.10931e+06         3.42247e+07
   16.67             43855.5             65.3082        -1.10763e+06         3.41617e+07
   16.69             43816.3             65.2686        -1.10598e+06         3.40992e+07
   16.71             43777.4             65.2283        -1.10433e+06         3.40372e+07
   16.73             43738.8             65.1873         -1.1027e+06         3.39756e+07
   16.75             43700.5             65.1455        -1.10109e+06         3.39145e+07
   16.77             43662.5             65.1029        -1.09948e+06         3.38538e+07
   16.79             43624.7             65.0595        -1.09789e+06         3.37936e+07
   16.81             43587.2             65.0154        -1.09631e+06         3.37338e+07
   16.83             43549.9             64.9705        -1.09475e+06         3.36744e+07
   16.85             43512.9             64.9248         -1.0932e+06         3.36154e+07
   16.87             43476.2             64.8783        -1.09166e+06         3.35569e+07
   16.89             43439.6              64.831        -1.09013e+06         3.34987e+07
   16.91             43403.3             64.7829        -1.08861e+06         3.34409e+07
   16.93             43367.2              64.734        -1.08711e+06         3.33836e+07
   16.95             43331.2             64.6843        -1.08562e+06         3.33266e+07
   16.97             43295.5             64.6338        -1.08413e+06           3.327e+07
   16.99               43260             64.5825        -1.08266e+06         3.32138e+07
   17.01             43224.6             64.5303         -1.0812e+06         3.31579e+07
   17.03             43189.5             64.4774        -1.07975e+06         3.31024e+07
   17.05             43154.5             64.4236        -1.07832e+06         3.30473e+07
   17.07             43119.6              64.369        -1.07689e+06         3.29925e+07
   17.09             43084.9             64.3135        -1.07547e+06          3.2938e+07
   17.11             43050.4             64.2572        -1.07406e+06         3.28839e+07
   17.13               43016             64.2001        -1.07266e+06         3.28301e+07
   17.15             42981.7             64.1422        -1.07127e+06         3.27767e+07
   17.17             42947.6             64.0834        -1.06989e+06         3.27236e+07
   17.19             42913.6             64.0238        -1.06852e+06         3.26708e+07
   17.21             42879.7             63.9633        -1.06716e+06         3.26183e+07
   17.23             42845.9             63.9019        -1.06581e+06         3.25661e+07
   17.25             42812.2             63.8398        -1.06447e+06         3.25143e+07
   17.27             42778.6             63.7767        -1.06313e+06         3.24627e+07
   17.29             42745.1             63.7129        -1.06181e+06         3.24115e+07
   17.31             42711.7             63.6481        -1.06049e+06         3.23605e+07
   17.33             42678.4             63.5825        -1.05918e+06         3.23098e+07
   17.35             42645.2             63.5161        -1.05788e+06         3.22594e+07
   17.37               42612             63.4488        -1.05659e+06         3.22093e+07
   17.39             42578.9             63.3806         -1.0553e+06         3.21594e+07
   17.41             42545.8             63.3116        -1.05402e+06         3.21098e+07
   17.43             42512.8             63.2417        -1.05275e+06         3.20605e+07
   17.45             42479.8              63.171        -1.05149e+06         3.20114e+07
   17.47             42446.9             63.0994        -1.05023e+06         3.19627e+07
   17.49             42414.1             63.0269        -1.04898e+06         3.19141e+07
   17.51             42381.2             62.9536        -1.04774e+06         3.18658e+07
   17.53             42348.4             62.8794        -1.04651e+06         3.18178e+07
   17.55             42315.6             62.8043        -1.04528e+06           3.177e+07
   17.57             42282.9             62.7284        -1.04406e+06         3.17224e+07
   17.59             42250.1             62.6516        -1.04284e+06         3.16751e+07
   17.61             42217.4              62.574        -1.04163e+06          3.1628e+07
   17.63             42184.7             62.4955        -1.04043e+06         3.15811e+07
   17.65               42152             62.4161        -1.03923e+06         3.15345e+07
   17.67             42119.3             62.3359        -1.03804e+06          3.1488e+07
   17.69             42086.6             62.2548        -1.03686e+06         3.14418e+07
   17.71             42053.8             62.1729        -1.03568e+06         3.13958e+07
   17.73             42021.1             62.0901         -1.0345e+06         3.13501e+07
   17.75             41988.4             62.0064        -1.03334e+06         3.13045e+07
   17.77             41955.6             61.9219        -1.03217e+06         3.12592e+07
   17.79             41922.8             61.8365        -1.03102e+06          3.1214e+07
   17.81               41890             61.7503        -1.02987e+06         3.11691e+07
   17.83             41857.2             61.6632        -1.02872e+06         3.11243e+07
   17.85             41824.3             61.5753        -1.02758e+06         3.10797e+07
   17.87             41791.4             61.4865        -1.02644e+06         3.10354e+07
   17.89             41758.5             61.3969        -1.02531e+06         3.09912e+07
   17.91             41725.5             61.3064        -1.02419e+06         3.09472e+07
   17.93             41692.5             61.2151        -1.02307e+06         3.09034e+07
   17.95             41659.4             61.1229        -1.02195e+06         3.08598e+07
   17.97             41626.3             61.0299        -1.02084e+06         3.08164e+07
   17.99             41593.1             60.9361        -1.01973e+06         3.07731e+07
   18.01             41559.9             60.8414        -1.01863e+06         3.07301e+07
   18.03             41526.7             60.7459        -1.01753e+06         3.06872e+07
   18.05             41493.3             60.6496        -1.01644e+06         3.06445e+07
   18.07             41459.9             60.5525        -1.01535e+06         3.06019e+07
   18.09             41426.5             60.4545        -1.01426e+06         3.05595e+07
   18.11               41393             60.3557        -1.01318e+06         3.05173e+07
   18.13             41359.4             60.2561         -1.0121e+06         3.04753e+07
   18.15             41325.8             60.1557        -1.01103e+06         3.04334e+07
   18.17             41292.1             60.0545        -1.00996e+06         3.03917e+07
   18.19             41258.3             59.9524        -1.00889e+06         3.03501e+07
   18.21             41224.4             59.8496        -1.00783e+06         3.03087e+07
   18.23             41190.5             59.7459        -1.00678e+06         3.02675e+07
   18.25             41156.5             59.6415        -1.00572e+06         3.02264e+07
   18.27             41122.4             59.5363        -1.00467e+06         3.01854e+07
   18.29             41088.2             59.4303        -1.00363e+06         3.01447e+07
   18.31               41054             59.3235        -1.00258e+06          3.0104e+07
   18.33             41019.7             59.2159        -1.00154e+06         3.00636e+07
   18.35             40985.3             59.1075        -1.00051e+06         3.00233e+07
   18.37             40950.8             58.9984             -999477         2.99831e+07
   18.39             40916.2             58.8885             -998448         2.99431e+07
   18.41             40881.5             58.7779             -997423         2.99032e+07
   18.43             40846.8             58.6664             -996402         2.98635e+07
   18.45               40812             58.5543             -995383         2.98239e+07
   18.47               40777             58.4413             -994368         2.97845e+07
   18.49               40742             58.3277             -993356         2.97452e+07
   18.51             40706.9             58.2133             -992348          2.9706e+07
   18.53             40671.7             58.0981             -991342          2.9667e+07
   18.55             40636.4             57.9823             -990340         2.96281e+07
   18.57               40601             57.8657             -989341         2.95894e+07
   18.59             40565.6             57.7484             -988345         2.95508e+07
   18.61               40530             57.6303             -987353         2.95124e+07
   18.63             40494.3             57.5116             -986363         2.94741e+07
   18.65             40458.6             57.3921             -985377         2.94359e+07
   18.67             40422.7              57.272             -984393         2.93979e+07
   18.69             40386.8             57.1512             -983413           2.936e+07
   18.71             40350.7             57.0296             -982435         2.93223e+07
   18.73             40314.6             56.9074             -981461         2.92847e+07
   18.75             40278.4             56.7846             -980489         2.92472e+07
   18.77             40242.1              56.661             -979521         2.92099e+07
   18.79             40205.6             56.5368             -978555         2.91727e+07
   18.81             40169.1             56.4119             -977593         2.91356e+07
   18.83             40132.5             56.2864             -976633         2.90987e+07
   18.85             40095.8             56.1603             -975676         2.90619e+07
   18.87               40059             56.0335             -974722         2.90253e+07
   18.89             40022.2              55.906             -973771         2.89888e+07
   18.91             39985.2              55.778             -972823         2.89524e+07
   18.93             39948.1             55.6493             -971878         2.89162e+07
   18.95             39910.9               55.52             -970936         2.88801e+07
   18.97             39873.7             55.3901             -969997         2.88441e+07
   18.99             39836.3             55.2596             -969060         2.88083e+07
   19.01             39798.9             55.1285             -968127         2.87726e+07
   19.03             39761.3             54.9968             -967196          2.8737e+07
   19.05             39723.7             54.8645             -966268         2.87016e+07
   19.07               39686             54.7317             -965343         2.86664e+07
   19.09             39648.2             54.5982             -964421         2.86312e+07
   19.11             39610.3             54.4643             -963502         2.85962e+07
   19.13             39572.3             54.3297             -962585         2.85614e+07
   19.15             39534.3             54.1947             -961672         2.85267e+07
   19.17             39496.1             54.0591             -960761         2.84921e+07
   19.19             39457.9             53.9229             -959853         2.84577e+07
   19.21             39419.6             53.7863             -958949         2.84234e+07
   19.23             39381.2             53.6491             -958047         2.83892e+07
   19.25             39342.7             53.5114             -957148         2.83552e+07
   19.27             39304.1             53.3732             -956251         2.83213e+07
   19.29             39265.5             53.2345             -955358         2.82876e+07
   19.31             39226.7             53.0953             -954468          2.8254e+07
   19.33             39187.9             52.9556             -953581         2.82206e+07
   19.35               39149             52.8155             -952696         2.81873e+07
   19.37             39110.1             52.6749             -951815         2.81542e+07
   19.39               39071             52.5338             -950936         2.81212e+07
   19.41             39031.9             52.3923             -950061         2.80883e+07
   19.43             38992.8             52.2503             -949188         2.80556e+07
   19.45             38953.5             52.1079             -948319          2.8023e+07
   19.47             38914.2             51.9651             -947452         2.79906e+07
   19.49             38874.8             51.8218             -946589         2.79584e+07
   19.51             38835.3             51.6782             -945728         2.79262e+07
   19.53             38795.8             51.5341             -944871         2.78943e+07
   19.55             38756.2             51.3896             -944016         2.78625e+07
   19.57             38716.5             51.2448             -943165         2.78308e+07
   19.59             38676.8             51.0995             -942317         2.77993e+07
   19.61               38637             50.9539             -941472         2.77679e+07
   19.63             38597.1             50.8079             -940629         2.77367e+07
   19.65             38557.2             50.6616             -939791         2.77057e+07
   19.67             38517.2             50.5149             -938955         2.76748e+07
   19.69             38477.2             50.3678             -938122         2.76441e+07
   19.71             38437.1             50.2205             -937292         2.76135e+07
   19.73               38397             50.0728             -936466          2.7583e+07
   19.75             38356.8             49.9247             -935643         2.75528e+07
   19.77             38316.5             49.7764             -934823         2.75227e+07
   19.79             38276.2             49.6278             -934006         2.74927e+07
   19.81             38235.9             49.4788             -933193         2.74629e+07
   19.83             38195.5             49.3296             -932382         2.74333e+07
   19.85               38155             49.1801             -931575         2.74039e+07
   19.87             38114.6             49.0303             -930772         2.73746e+07
   19.89               38074             48.8803             -929971         2.73454e+07
   19.91             38033.5               48.73             -929174         2.73164e+07
   19.93             37992.8             48.5795             -928380         2.72876e+07
   19.95             37952.2             48.4287             -927590          2.7259e+07
   19.97             37911.5             48.2777             -926802         2.72305e+07
   19.99             37870.8             48.1264             -926018         2.72022e+07
