## w(eV)         sigma(Sm^-1)     kappa(W(mK)^-1)        L12/e(Am^-1)      L22/e^2(Wm^-1)
    0.01              515796              765.11        -1.00552e+07         2.68503e+08
    0.03              515792             765.104        -1.00552e+07         2.68503e+08
    0.05              515785             765.092        -1.00552e+07         2.68503e+08
    0.07              515775             765.073        -1.00551e+07         2.68503e+08
    0.09              515761             765.049         -1.0055e+07         2.68503e+08
    0.11              515744             765.019        -1.00549e+07         2.68503e+08
    0.13              515723             764.983        -1.00548e+07         2.68503e+08
    0.15              515699              764.94        -1.00547e+07         2.68503e+08
    0.17              515671             764.892        -1.00545e+07         2.68503e+08
    0.19              515639             764.838        -1.00544e+07         2.68503e+08
    0.21              515605             764.777        -1.00542e+07         2.68503e+08
    0.23              515566             764.711        -1.00539e+07         2.68503e+08
    0.25              515525             764.638        -1.00537e+07         2.68503e+08
    0.27              515479             764.559        -1.00535e+07         2.68502e+08
    0.29              515431             764.475        -1.00532e+07         2.68502e+08
    0.31              515379             764.384        -1.00529e+07         2.68502e+08
    0.33              515323             764.287        -1.00526e+07         2.68502e+08
    0.35              515264             764.184        -1.00522e+07         2.68502e+08
    0.37              515201             764.076        -1.00519e+07         2.68501e+08
    0.39              515135             763.961        -1.00515e+07         2.68501e+08
    0.41              515065             763.839        -1.00511e+07         2.68501e+08
    0.43              514992             763.712        -1.00507e+07           2.685e+08
    0.45              514916             763.579        -1.00503e+07           2.685e+08
    0.47              514836              763.44        -1.00498e+07           2.685e+08
    0.49              514752             763.295        -1.00494e+07         2.68499e+08
    0.51              514665             763.143        -1.00489e+07         2.68499e+08
    0.53              514575             762.986        -1.00483e+07         2.68498e+08
    0.55              514481             762.822        -1.00478e+07         2.68498e+08
    0.57              514383             762.653        -1.00472e+07         2.68497e+08
    0.59              514283             762.477        -1.00467e+07         2.68496e+08
    0.61              514178             762.295        -1.00461e+07         2.68496e+08
    0.63              514070             762.107        -1.00455e+07         2.68495e+08
    0.65              513959             761.913        -1.00448e+07         2.68494e+08
    0.67              513844             761.713        -1.00442e+07         2.68493e+08
    0.69              513726             761.507        -1.00435e+07         2.68492e+08
    0.71              513604             761.295        -1.00428e+07         2.68491e+08
    0.73              513479             761.076         -1.0042e+07          2.6849e+08
    0.75              513350             760.852        -1.00413e+07         2.68488e+08
    0.77              513217             760.621        -1.00405e+07         2.68487e+08
    0.79              513082             760.385        -1.00397e+07         2.68486e+08
    0.81              512942             760.142        -1.00389e+07         2.68484e+08
    0.83              512800             759.893        -1.00381e+07         2.68482e+08
    0.85              512653             759.638        -1.00372e+07         2.68481e+08
    0.87              512504             759.377        -1.00363e+07         2.68479e+08
    0.89              512350              759.11        -1.00354e+07         2.68477e+08
    0.91              512194             758.836        -1.00345e+07         2.68475e+08
    0.93              512033             758.556        -1.00336e+07         2.68473e+08
    0.95              511870             758.271        -1.00326e+07          2.6847e+08
    0.97              511703             757.979        -1.00316e+07         2.68468e+08
    0.99              511532             757.681        -1.00306e+07         2.68465e+08
    1.01              511358             757.377        -1.00295e+07         2.68462e+08
    1.03              511180             757.066        -1.00285e+07         2.68459e+08
    1.05              510999              756.75        -1.00274e+07         2.68456e+08
    1.07              510814             756.427        -1.00262e+07         2.68453e+08
    1.09              510626             756.098        -1.00251e+07          2.6845e+08
    1.11              510434             755.764        -1.00239e+07         2.68446e+08
    1.13              510239             755.422        -1.00227e+07         2.68442e+08
    1.15              510041             755.075        -1.00215e+07         2.68438e+08
    1.17              509838             754.721        -1.00203e+07         2.68434e+08
    1.19              509633             754.362         -1.0019e+07          2.6843e+08
    1.21              509424             753.996        -1.00177e+07         2.68425e+08
    1.23              509211             753.624        -1.00164e+07          2.6842e+08
    1.25              508995             753.245        -1.00151e+07         2.68415e+08
    1.27              508775             752.861        -1.00137e+07          2.6841e+08
    1.29              508552              752.47        -1.00123e+07         2.68404e+08
    1.31              508325             752.073        -1.00109e+07         2.68399e+08
    1.33              508095              751.67        -1.00094e+07         2.68393e+08
    1.35              507862             751.261         -1.0008e+07         2.68386e+08
    1.37              507624             750.845        -1.00065e+07          2.6838e+08
    1.39              507384             750.423        -1.00049e+07         2.68373e+08
    1.41              507140             749.995        -1.00034e+07         2.68366e+08
    1.43              506892             749.561        -1.00018e+07         2.68359e+08
    1.45              506641              749.12        -1.00002e+07         2.68351e+08
    1.47              506386             748.673        -9.99852e+06         2.68343e+08
    1.49              506128              748.22        -9.99685e+06         2.68335e+08
    1.51              505866             747.761        -9.99515e+06         2.68326e+08
    1.53              505601             747.295        -9.99342e+06         2.68317e+08
    1.55              505332             746.823        -9.99166e+06         2.68308e+08
    1.57              505060             746.345        -9.98987e+06         2.68299e+08
    1.59              504784             745.861        -9.98805e+06         2.68289e+08
    1.61              504505              745.37         -9.9862e+06         2.68278e+08
    1.63              504222             744.873        -9.98432e+06         2.68268e+08
    1.65              503936              744.37        -9.98241e+06         2.68257e+08
    1.67              503646              743.86        -9.98047e+06         2.68245e+08
    1.69              503353             743.344         -9.9785e+06         2.68233e+08
    1.71              503056             742.822         -9.9765e+06         2.68221e+08
    1.73              502756             742.294        -9.97446e+06         2.68209e+08
    1.75              502452             741.759        -9.97239e+06         2.68195e+08
    1.77              502144             741.218        -9.97029e+06         2.68182e+08
    1.79              501834              740.67        -9.96816e+06         2.68168e+08
    1.81              501519             740.117          -9.966e+06         2.68154e+08
    1.83              501201             739.556         -9.9638e+06         2.68139e+08
    1.85              500880              738.99        -9.96157e+06         2.68123e+08
    1.87              500555             738.417         -9.9593e+06         2.68108e+08
    1.89              500226             737.838          -9.957e+06         2.68091e+08
    1.91              499895             737.253        -9.95467e+06         2.68075e+08
    1.93              499559             736.661         -9.9523e+06         2.68057e+08
    1.95              499220             736.063         -9.9499e+06          2.6804e+08
    1.97              498878             735.458        -9.94746e+06         2.68021e+08
    1.99              498532             734.847        -9.94499e+06         2.68002e+08
    2.01              498182              734.23        -9.94248e+06         2.67983e+08
    2.03              497829             733.607        -9.93994e+06         2.67963e+08
    2.05              497472             732.977        -9.93736e+06         2.67942e+08
    2.07              497112              732.34        -9.93474e+06         2.67921e+08
    2.09              496749             731.698        -9.93209e+06           2.679e+08
    2.11              496382             731.048         -9.9294e+06         2.67877e+08
    2.13              496011             730.393        -9.92667e+06         2.67854e+08
    2.15              495637             729.731         -9.9239e+06         2.67831e+08
    2.17              495259             729.063         -9.9211e+06         2.67807e+08
    2.19              494878             728.388        -9.91825e+06         2.67782e+08
    2.21              494493             727.707        -9.91537e+06         2.67756e+08
    2.23              494105              727.02        -9.91245e+06          2.6773e+08
    2.25              493713             726.326        -9.90949e+06         2.67704e+08
    2.27              493318             725.626        -9.90649e+06         2.67676e+08
    2.29              492919             724.919        -9.90345e+06         2.67648e+08
    2.31              492517             724.206        -9.90037e+06         2.67619e+08
    2.33              492111             723.487        -9.89725e+06         2.67589e+08
    2.35              491702             722.761        -9.89409e+06         2.67559e+08
    2.37              491289             722.029        -9.89089e+06         2.67528e+08
    2.39              490873              721.29        -9.88764e+06         2.67496e+08
    2.41              490453             720.545        -9.88436e+06         2.67464e+08
    2.43              490029             719.793        -9.88103e+06          2.6743e+08
    2.45              489602             719.036        -9.87766e+06         2.67396e+08
    2.47              489172             718.271        -9.87424e+06         2.67361e+08
    2.49              488738             717.501        -9.87078e+06         2.67326e+08
    2.51              488301             716.723        -9.86728e+06         2.67289e+08
    2.53              487860              715.94        -9.86374e+06         2.67252e+08
    2.55              487415              715.15        -9.86015e+06         2.67214e+08
    2.57              486967             714.353        -9.85652e+06         2.67174e+08
    2.59              486516             713.551        -9.85284e+06         2.67135e+08
    2.61              486061             712.741        -9.84912e+06         2.67094e+08
    2.63              485602             711.926        -9.84535e+06         2.67052e+08
    2.65              485140             711.104        -9.84153e+06         2.67009e+08
    2.67              484675             710.275        -9.83767e+06         2.66966e+08
    2.69              484206              709.44        -9.83376e+06         2.66921e+08
    2.71              483733             708.599        -9.82981e+06         2.66876e+08
    2.73              483257             707.751        -9.82581e+06          2.6683e+08
    2.75              482778             706.897        -9.82176e+06         2.66782e+08
    2.77              482295             706.037        -9.81766e+06         2.66734e+08
    2.79              481808              705.17        -9.81352e+06         2.66685e+08
    2.81              481319             704.296        -9.80932e+06         2.66635e+08
    2.83              480825             703.417        -9.80508e+06         2.66584e+08
    2.85              480328              702.53        -9.80079e+06         2.66531e+08
    2.87              479828             701.638        -9.79644e+06         2.66478e+08
    2.89              479324             700.739        -9.79205e+06         2.66424e+08
    2.91              478816             699.833        -9.78761e+06         2.66368e+08
    2.93              478305             698.922        -9.78312e+06         2.66312e+08
    2.95              477791             698.004        -9.77858e+06         2.66254e+08
    2.97              477273             697.079        -9.77398e+06         2.66195e+08
    2.99              476752             696.148        -9.76933e+06         2.66136e+08
    3.01              476227             695.211        -9.76464e+06         2.66075e+08
    3.03              475699             694.267        -9.75989e+06         2.66013e+08
    3.05              475167             693.317        -9.75508e+06          2.6595e+08
    3.07              474631             692.361        -9.75023e+06         2.65885e+08
    3.09              474093             691.398        -9.74532e+06          2.6582e+08
    3.11              473551             690.429        -9.74035e+06         2.65753e+08
    3.13              473005             689.453        -9.73534e+06         2.65685e+08
    3.15              472456             688.472        -9.73027e+06         2.65616e+08
    3.17              471903             687.483        -9.72514e+06         2.65546e+08
    3.19              471347             686.489        -9.71996e+06         2.65474e+08
    3.21              470788             685.488        -9.71472e+06         2.65402e+08
    3.23              470225             684.481        -9.70943e+06         2.65328e+08
    3.25              469658             683.467        -9.70408e+06         2.65252e+08
    3.27              469088             682.448        -9.69868e+06         2.65176e+08
    3.29              468515             681.422        -9.69322e+06         2.65098e+08
    3.31              467938             680.389         -9.6877e+06         2.65019e+08
    3.33              467358             679.351        -9.68212e+06         2.64938e+08
    3.35              466775             678.306        -9.67649e+06         2.64857e+08
    3.37              466188             677.255         -9.6708e+06         2.64773e+08
    3.39              465597             676.197        -9.66505e+06         2.64689e+08
    3.41              465003             675.133        -9.65924e+06         2.64603e+08
    3.43              464406             674.064        -9.65338e+06         2.64516e+08
    3.45              463805             672.987        -9.64745e+06         2.64427e+08
    3.47              463201             671.905        -9.64147e+06         2.64337e+08
    3.49              462594             670.816        -9.63542e+06         2.64245e+08
    3.51              461983             669.722        -9.62931e+06         2.64153e+08
    3.53              461368             668.621        -9.62315e+06         2.64058e+08
    3.55              460751             667.513        -9.61692e+06         2.63962e+08
    3.57              460129               666.4        -9.61063e+06         2.63865e+08
    3.59              459505              665.28        -9.60428e+06         2.63766e+08
    3.61              458877             664.155        -9.59787e+06         2.63666e+08
    3.63              458246             663.023         -9.5914e+06         2.63564e+08
    3.65              457611             661.885        -9.58486e+06         2.63461e+08
    3.67              456973             660.741        -9.57826e+06         2.63356e+08
    3.69              456332             659.591         -9.5716e+06          2.6325e+08
    3.71              455687             658.435        -9.56487e+06         2.63142e+08
    3.73              455039             657.272        -9.55808e+06         2.63033e+08
    3.75              454387             656.104        -9.55123e+06         2.62921e+08
    3.77              453732             654.929        -9.54431e+06         2.62809e+08
    3.79              453074             653.749        -9.53733e+06         2.62695e+08
    3.81              452413             652.562        -9.53028e+06         2.62579e+08
    3.83              451748              651.37        -9.52317e+06         2.62461e+08
    3.85              451080             650.171          -9.516e+06         2.62342e+08
    3.87              450408             648.967        -9.50875e+06         2.62221e+08
    3.89              449734             647.757        -9.50144e+06         2.62099e+08
    3.91              449055              646.54        -9.49407e+06         2.61975e+08
    3.93              448374             645.318        -9.48663e+06         2.61849e+08
    3.95              447689              644.09        -9.47912e+06         2.61722e+08
    3.97              447001             642.856        -9.47154e+06         2.61592e+08
    3.99              446310             641.616         -9.4639e+06         2.61462e+08
    4.01              445615              640.37        -9.45618e+06         2.61329e+08
    4.03              444918             639.118        -9.44841e+06         2.61195e+08
    4.05              444217             637.861        -9.44056e+06         2.61058e+08
    4.07              443512             636.598        -9.43264e+06          2.6092e+08
    4.09              442805             635.328        -9.42466e+06         2.60781e+08
    4.11              442094             634.054         -9.4166e+06         2.60639e+08
    4.13              441380             632.773        -9.40848e+06         2.60496e+08
    4.15              440662             631.487        -9.40029e+06         2.60351e+08
    4.17              439942             630.195        -9.39202e+06         2.60204e+08
    4.19              439218             628.897        -9.38369e+06         2.60055e+08
    4.21              438491             627.594        -9.37529e+06         2.59905e+08
    4.23              437761             626.285        -9.36682e+06         2.59752e+08
    4.25              437027              624.97        -9.35827e+06         2.59598e+08
    4.27              436291              623.65        -9.34966e+06         2.59442e+08
    4.29              435551             622.324        -9.34097e+06         2.59284e+08
    4.31              434808             620.993        -9.33221e+06         2.59124e+08
    4.33              434062             619.656        -9.32338e+06         2.58962e+08
    4.35              433313             618.313        -9.31448e+06         2.58798e+08
    4.37              432560             616.965        -9.30551e+06         2.58633e+08
    4.39              431805             615.612        -9.29646e+06         2.58465e+08
    4.41              431046             614.253        -9.28734e+06         2.58295e+08
    4.43              430284             612.889        -9.27815e+06         2.58124e+08
    4.45              429519             611.519        -9.26889e+06          2.5795e+08
    4.47              428751             610.144        -9.25955e+06         2.57775e+08
    4.49              427980             608.764        -9.25014e+06         2.57597e+08
    4.51              427206             607.378        -9.24065e+06         2.57418e+08
    4.53              426429             605.987        -9.23109e+06         2.57236e+08
    4.55              425648             604.591        -9.22146e+06         2.57053e+08
    4.57              424865              603.19        -9.21175e+06         2.56867e+08
    4.59              424079             601.783        -9.20197e+06          2.5668e+08
    4.61              423289             600.371        -9.19211e+06          2.5649e+08
    4.63              422497             598.954        -9.18218e+06         2.56298e+08
    4.65              421701             597.532        -9.17218e+06         2.56105e+08
    4.67              420903             596.105         -9.1621e+06         2.55909e+08
    4.69              420101             594.673        -9.15194e+06         2.55711e+08
    4.71              419296             593.235        -9.14171e+06         2.55511e+08
    4.73              418489             591.793         -9.1314e+06         2.55309e+08
    4.75              417678             590.346        -9.12102e+06         2.55104e+08
    4.77              416865             588.893        -9.11056e+06         2.54898e+08
    4.79              416049             587.436        -9.10003e+06          2.5469e+08
    4.81              415229             585.974        -9.08942e+06         2.54479e+08
    4.83              414407             584.507        -9.07873e+06         2.54266e+08
    4.85              413582             583.035        -9.06796e+06         2.54052e+08
    4.87              412754             581.559        -9.05712e+06         2.53835e+08
    4.89              411923             580.077        -9.04621e+06         2.53615e+08
    4.91              411089             578.591        -9.03521e+06         2.53394e+08
    4.93              410252             577.101        -9.02414e+06          2.5317e+08
    4.95              409413             575.605          -9.013e+06         2.52945e+08
    4.97              408570             574.105        -9.00177e+06         2.52717e+08
    4.99              407725             572.601        -8.99047e+06         2.52487e+08
    5.01              406877             571.091        -8.97909e+06         2.52254e+08
    5.03              406026             569.578        -8.96763e+06          2.5202e+08
    5.05              405173             568.059         -8.9561e+06         2.51783e+08
    5.07              404316             566.537        -8.94449e+06         2.51544e+08
    5.09              403457             565.009         -8.9328e+06         2.51303e+08
    5.11              402595             563.478        -8.92103e+06         2.51059e+08
    5.13              401731             561.942        -8.90918e+06         2.50813e+08
    5.15              400863             560.402        -8.89726e+06         2.50565e+08
    5.17              399993             558.857        -8.88526e+06         2.50315e+08
    5.19              399120             557.309        -8.87318e+06         2.50062e+08
    5.21              398245             555.756        -8.86102e+06         2.49808e+08
    5.23              397367             554.199        -8.84879e+06         2.49551e+08
    5.25              396486             552.637        -8.83647e+06         2.49291e+08
    5.27              395602             551.072        -8.82408e+06         2.49029e+08
    5.29              394716             549.503        -8.81161e+06         2.48765e+08
    5.31              393828             547.929        -8.79906e+06         2.48499e+08
    5.33              392936             546.352        -8.78644e+06         2.48231e+08
    5.35              392042              544.77        -8.77373e+06          2.4796e+08
    5.37              391146             543.185        -8.76095e+06         2.47687e+08
    5.39              390247             541.596        -8.74809e+06         2.47411e+08
    5.41              389345             540.003        -8.73515e+06         2.47133e+08
    5.43              388441             538.406        -8.72213e+06         2.46853e+08
    5.45              387535             536.806        -8.70904e+06          2.4657e+08
    5.47              386626             535.202        -8.69586e+06         2.46286e+08
    5.49              385714             533.594        -8.68261e+06         2.45998e+08
    5.51              384800             531.983        -8.66928e+06         2.45709e+08
    5.53              383884             530.368        -8.65587e+06         2.45417e+08
    5.55              382965             528.749        -8.64238e+06         2.45123e+08
    5.57              382043             527.127        -8.62882e+06         2.44826e+08
    5.59              381120             525.502        -8.61517e+06         2.44527e+08
    5.61              380194             523.873        -8.60145e+06         2.44226e+08
    5.63              379265             522.241        -8.58765e+06         2.43922e+08
    5.65              378334             520.605        -8.57377e+06         2.43616e+08
    5.67              377401             518.967        -8.55982e+06         2.43308e+08
    5.69              376466             517.325        -8.54579e+06         2.42997e+08
    5.71              375528              515.68        -8.53168e+06         2.42684e+08
    5.73              374588             514.031        -8.51749e+06         2.42368e+08
    5.75              373646              512.38        -8.50322e+06         2.42051e+08
    5.77              372701             510.725        -8.48888e+06          2.4173e+08
    5.79              371755             509.068        -8.47446e+06         2.41408e+08
    5.81              370806             507.408        -8.45996e+06         2.41083e+08
    5.83              369855             505.744        -8.44539e+06         2.40755e+08
    5.85              368901             504.078        -8.43074e+06         2.40425e+08
    5.87              367946             502.409        -8.41601e+06         2.40093e+08
    5.89              366988             500.737         -8.4012e+06         2.39759e+08
    5.91              366029             499.063        -8.38632e+06         2.39422e+08
    5.93              365067             497.386        -8.37136e+06         2.39083e+08
    5.95              364103             495.706        -8.35633e+06         2.38741e+08
    5.97              363137             494.024        -8.34122e+06         2.38397e+08
    5.99              362169             492.339        -8.32603e+06          2.3805e+08
    6.01              361199             490.652        -8.31077e+06         2.37702e+08
    6.03              360228             488.962        -8.29543e+06          2.3735e+08
    6.05              359254              487.27        -8.28002e+06         2.36997e+08
    6.07              358278             485.575        -8.26453e+06         2.36641e+08
    6.09              357300             483.878        -8.24896e+06         2.36282e+08
    6.11              356320             482.179        -8.23333e+06         2.35922e+08
    6.13              355339             480.478        -8.21761e+06         2.35559e+08
    6.15              354355             478.775        -8.20182e+06         2.35193e+08
    6.17              353370             477.069        -8.18596e+06         2.34825e+08
    6.19              352383             475.362        -8.17003e+06         2.34455e+08
    6.21              351394             473.652        -8.15402e+06         2.34083e+08
    6.23              350403             471.941        -8.13793e+06         2.33708e+08
    6.25              349410             470.228        -8.12178e+06          2.3333e+08
    6.27              348416             468.513        -8.10554e+06         2.32951e+08
    6.29              347420             466.796        -8.08924e+06         2.32569e+08
    6.31              346422             465.077        -8.07287e+06         2.32184e+08
    6.33              345423             463.357        -8.05642e+06         2.31798e+08
    6.35              344422             461.635         -8.0399e+06         2.31409e+08
    6.37              343419             459.911        -8.02331e+06         2.31017e+08
    6.39              342415             458.186        -8.00664e+06         2.30623e+08
    6.41              341409              456.46        -7.98991e+06         2.30227e+08
    6.43              340401             454.732         -7.9731e+06         2.29829e+08
    6.45              339392             453.003        -7.95622e+06         2.29428e+08
    6.47              338382             451.272        -7.93928e+06         2.29025e+08
    6.49              337370              449.54        -7.92226e+06          2.2862e+08
    6.51              336356             447.807        -7.90517e+06         2.28212e+08
    6.53              335341             446.073        -7.88802e+06         2.27802e+08
    6.55              334324             444.338        -7.87079e+06          2.2739e+08
    6.57              333307             442.601         -7.8535e+06         2.26976e+08
    6.59              332287             440.864        -7.83613e+06         2.26559e+08
    6.61              331267             439.126         -7.8187e+06          2.2614e+08
    6.63              330245             437.386         -7.8012e+06         2.25718e+08
    6.65              329221             435.646        -7.78363e+06         2.25295e+08
    6.67              328197             433.906          -7.766e+06         2.24869e+08
    6.69              327171             432.164         -7.7483e+06         2.24441e+08
    6.71              326144             430.422        -7.73053e+06         2.24011e+08
    6.73              325116             428.679         -7.7127e+06         2.23578e+08
    6.75              324086             426.936         -7.6948e+06         2.23143e+08
    6.77              323055             425.192        -7.67684e+06         2.22706e+08
    6.79              322023             423.447        -7.65881e+06         2.22267e+08
    6.81              320990             421.703        -7.64072e+06         2.21825e+08
    6.83              319956             419.958        -7.62256e+06         2.21382e+08
    6.85              318921             418.212        -7.60434e+06         2.20936e+08
    6.87              317885             416.467        -7.58605e+06         2.20488e+08
    6.89              316848             414.721        -7.56771e+06         2.20037e+08
    6.91              315810             412.975         -7.5493e+06         2.19585e+08
    6.93              314770             411.229        -7.53083e+06          2.1913e+08
    6.95              313730             409.483        -7.51229e+06         2.18674e+08
    6.97              312689             407.737         -7.4937e+06         2.18215e+08
    6.99              311647             405.991        -7.47505e+06         2.17754e+08
    7.01              310604             404.245        -7.45633e+06         2.17291e+08
    7.03              309561               402.5        -7.43756e+06         2.16826e+08
    7.05              308516             400.755        -7.41872e+06         2.16359e+08
    7.07              307471              399.01        -7.39983e+06         2.15889e+08
    7.09              306425             397.265        -7.38088e+06         2.15418e+08
    7.11              305378             395.521        -7.36187e+06         2.14944e+08
    7.13              304330             393.777         -7.3428e+06         2.14469e+08
    7.15              303282             392.034        -7.32368e+06         2.13991e+08
    7.17              302233             390.292         -7.3045e+06         2.13512e+08
    7.19              301184              388.55        -7.28527e+06          2.1303e+08
    7.21              300134             386.809        -7.26598e+06         2.12546e+08
    7.23              299083             385.069        -7.24663e+06         2.12061e+08
    7.25              298032             383.329        -7.22723e+06         2.11573e+08
    7.27              296980              381.59        -7.20778e+06         2.11084e+08
    7.29              295928             379.853        -7.18827e+06         2.10592e+08
    7.31              294875             378.116        -7.16871e+06         2.10099e+08
    7.33              293822              376.38         -7.1491e+06         2.09603e+08
    7.35              292768             374.646        -7.12943e+06         2.09106e+08
    7.37              291714             372.912        -7.10972e+06         2.08607e+08
    7.39              290660              371.18        -7.08995e+06         2.08105e+08
    7.41              289605             369.449        -7.07014e+06         2.07602e+08
    7.43              288550              367.72        -7.05027e+06         2.07098e+08
    7.45              287495             365.991        -7.03036e+06         2.06591e+08
    7.47              286439             364.264        -7.01039e+06         2.06082e+08
    7.49              285383             362.539        -6.99038e+06         2.05572e+08
    7.51              284327             360.815        -6.97033e+06          2.0506e+08
    7.53              283271             359.093        -6.95022e+06         2.04546e+08
    7.55              282215             357.373        -6.93007e+06          2.0403e+08
    7.57              281158             355.654        -6.90988e+06         2.03512e+08
    7.59              280102             353.937        -6.88964e+06         2.02993e+08
    7.61              279045             352.221        -6.86935e+06         2.02472e+08
    7.63              277988             350.508        -6.84902e+06         2.01949e+08
    7.65              276932             348.797        -6.82865e+06         2.01425e+08
    7.67              275875             347.087        -6.80824e+06         2.00899e+08
    7.69              274819              345.38        -6.78778e+06         2.00371e+08
    7.71              273762             343.674        -6.76729e+06         1.99842e+08
    7.73              272706             341.971        -6.74675e+06         1.99311e+08
    7.75              271650              340.27        -6.72617e+06         1.98778e+08
    7.77              270593             338.571        -6.70556e+06         1.98244e+08
    7.79              269538             336.875         -6.6849e+06         1.97708e+08
    7.81              268482             335.181        -6.66421e+06          1.9717e+08
    7.83              267427             333.489        -6.64348e+06         1.96631e+08
    7.85              266371               331.8        -6.62271e+06         1.96091e+08
    7.87              265317             330.113        -6.60191e+06         1.95549e+08
    7.89              264262             328.429        -6.58107e+06         1.95005e+08
    7.91              263208             326.748        -6.56019e+06          1.9446e+08
    7.93              262154             325.069        -6.53929e+06         1.93913e+08
    7.95              261101             323.393        -6.51834e+06         1.93365e+08
    7.97              260048             321.719        -6.49737e+06         1.92816e+08
    7.99              258996             320.049        -6.47637e+06         1.92265e+08
    8.01              257944             318.381        -6.45533e+06         1.91713e+08
    8.03              256892             316.717        -6.43426e+06         1.91159e+08
    8.05              255842             315.055        -6.41316e+06         1.90604e+08
    8.07              254792             313.397        -6.39204e+06         1.90048e+08
    8.09              253742             311.741        -6.37088e+06          1.8949e+08
    8.11              252693             310.089         -6.3497e+06         1.88931e+08
    8.13              251645              308.44        -6.32848e+06         1.88371e+08
    8.15              250597             306.794        -6.30725e+06          1.8781e+08
    8.17              249551             305.151        -6.28598e+06         1.87247e+08
    8.19              248505             303.512         -6.2647e+06         1.86683e+08
    8.21              247459             301.876        -6.24338e+06         1.86118e+08
    8.23              246415             300.244        -6.22205e+06         1.85551e+08
    8.25              245371             298.615        -6.20069e+06         1.84984e+08
    8.27              244329              296.99         -6.1793e+06         1.84415e+08
    8.29              243287             295.368         -6.1579e+06         1.83845e+08
    8.31              242246              293.75        -6.13648e+06         1.83274e+08
    8.33              241206             292.136        -6.11503e+06         1.82702e+08
    8.35              240167             290.525        -6.09357e+06         1.82129e+08
    8.37              239129             288.918        -6.07208e+06         1.81555e+08
    8.39              238093             287.315        -6.05058e+06          1.8098e+08
    8.41              237057             285.716        -6.02907e+06         1.80404e+08
    8.43              236022             284.121        -6.00753e+06         1.79827e+08
    8.45              234989              282.53        -5.98598e+06         1.79249e+08
    8.47              233956             280.943        -5.96442e+06          1.7867e+08
    8.49              232925              279.36        -5.94284e+06          1.7809e+08
    8.51              231895             277.781        -5.92124e+06         1.77509e+08
    8.53              230867             276.206        -5.89964e+06         1.76927e+08
    8.55              229839             274.636        -5.87802e+06         1.76344e+08
    8.57              228813              273.07        -5.85639e+06         1.75761e+08
    8.59              227788             271.508        -5.83475e+06         1.75177e+08
    8.61              226765              269.95         -5.8131e+06         1.74592e+08
    8.63              225743             268.397        -5.79144e+06         1.74006e+08
    8.65              224722             266.849        -5.76978e+06         1.73419e+08
    8.67              223703             265.304         -5.7481e+06         1.72832e+08
    8.69              222685             263.765        -5.72642e+06         1.72244e+08
    8.71              221669              262.23        -5.70474e+06         1.71655e+08
    8.73              220655             260.699        -5.68304e+06         1.71066e+08
    8.75              219641             259.174        -5.66135e+06         1.70476e+08
    8.77              218630             257.653        -5.63965e+06         1.69885e+08
    8.79              217620             256.136        -5.61794e+06         1.69294e+08
    8.81              216612             254.625        -5.59624e+06         1.68702e+08
    8.83              215605             253.118        -5.57453e+06          1.6811e+08
    8.85              214600             251.617        -5.55282e+06         1.67517e+08
    8.87              213597              250.12        -5.53111e+06         1.66923e+08
    8.89              212595             248.628        -5.50941e+06         1.66329e+08
    8.91              211595             247.141         -5.4877e+06         1.65735e+08
    8.93              210598             245.659          -5.466e+06          1.6514e+08
    8.95              209601             244.183         -5.4443e+06         1.64545e+08
    8.97              208607             242.711         -5.4226e+06         1.63949e+08
    8.99              207615             241.245        -5.40091e+06         1.63353e+08
    9.01              206624             239.783        -5.37922e+06         1.62757e+08
    9.03              205636             238.327        -5.35754e+06          1.6216e+08
    9.05              204649             236.877        -5.33587e+06         1.61563e+08
    9.07              203664             235.431         -5.3142e+06         1.60966e+08
    9.09              202682             233.991        -5.29254e+06         1.60369e+08
    9.11              201701             232.557        -5.27089e+06         1.59771e+08
    9.13              200722             231.128        -5.24925e+06         1.59173e+08
    9.15              199746             229.704        -5.22763e+06         1.58575e+08
    9.17              198771             228.286        -5.20601e+06         1.57976e+08
    9.19              197799             226.873        -5.18441e+06         1.57378e+08
    9.21              196829             225.466        -5.16281e+06         1.56779e+08
    9.23              195861             224.064        -5.14124e+06         1.56181e+08
    9.25              194895             222.669        -5.11967e+06         1.55582e+08
    9.27              193932             221.278        -5.09812e+06         1.54983e+08
    9.29              192971             219.894        -5.07659e+06         1.54384e+08
    9.31              192012             218.515        -5.05508e+06         1.53785e+08
    9.33              191055             217.142        -5.03358e+06         1.53186e+08
    9.35              190101             215.775         -5.0121e+06         1.52587e+08
    9.37              189149             214.414        -4.99064e+06         1.51989e+08
    9.39              188199             213.059        -4.96919e+06          1.5139e+08
    9.41              187252             211.709        -4.94777e+06         1.50791e+08
    9.43              186307             210.366        -4.92637e+06         1.50193e+08
    9.45              185365             209.028          -4.905e+06         1.49594e+08
    9.47              184425             207.696        -4.88364e+06         1.48996e+08
    9.49              183487             206.371        -4.86231e+06         1.48398e+08
    9.51              182553             205.051          -4.841e+06         1.47801e+08
    9.53              181620             203.738        -4.81972e+06         1.47203e+08
    9.55              180690             202.431        -4.79846e+06         1.46606e+08
    9.57              179763              201.13        -4.77723e+06         1.46009e+08
    9.59              178839             199.835        -4.75602e+06         1.45412e+08
    9.61              177917             198.546        -4.73485e+06         1.44816e+08
    9.63              176997             197.263         -4.7137e+06          1.4422e+08
    9.65              176081             195.987        -4.69258e+06         1.43624e+08
    9.67              175167             194.717        -4.67149e+06         1.43029e+08
    9.69              174255             193.453        -4.65043e+06         1.42434e+08
    9.71              173347             192.196         -4.6294e+06          1.4184e+08
    9.73              172441             190.945         -4.6084e+06         1.41246e+08
    9.75              171538               189.7        -4.58744e+06         1.40653e+08
    9.77              170638             188.462        -4.56651e+06          1.4006e+08
    9.79              169740              187.23        -4.54562e+06         1.39468e+08
    9.81              168846             186.004        -4.52476e+06         1.38876e+08
    9.83              167954             184.786        -4.50393e+06         1.38285e+08
    9.85              167065             183.573        -4.48314e+06         1.37694e+08
    9.87              166179             182.367        -4.46239e+06         1.37104e+08
    9.89              165296             181.168        -4.44167e+06         1.36515e+08
    9.91              164416             179.975          -4.421e+06         1.35926e+08
    9.93              163539             178.789        -4.40036e+06         1.35338e+08
    9.95              162665             177.609        -4.37976e+06         1.34751e+08
    9.97              161793             176.436         -4.3592e+06         1.34164e+08
    9.99              160925             175.269        -4.33868e+06         1.33578e+08
   10.01              160060              174.11        -4.31821e+06         1.32993e+08
   10.03              159198             172.956        -4.29777e+06         1.32409e+08
   10.05              158339              171.81        -4.27738e+06         1.31825e+08
   10.07              157483              170.67        -4.25703e+06         1.31243e+08
   10.09              156630             169.537        -4.23673e+06         1.30661e+08
   10.11              155780             168.411        -4.21647e+06          1.3008e+08
   10.13              154934             167.291        -4.19626e+06           1.295e+08
   10.15              154090             166.178        -4.17609e+06         1.28921e+08
   10.17              153250             165.072        -4.15597e+06         1.28343e+08
   10.19              152413             163.973        -4.13589e+06         1.27766e+08
   10.21              151579             162.881        -4.11587e+06          1.2719e+08
   10.23              150748             161.795        -4.09589e+06         1.26614e+08
   10.25              149920             160.716        -4.07596e+06          1.2604e+08
   10.27              149096             159.645        -4.05608e+06         1.25467e+08
   10.29              148275             158.579        -4.03625e+06         1.24895e+08
   10.31              147457             157.521        -4.01647e+06         1.24324e+08
   10.33              146643              156.47        -3.99675e+06         1.23754e+08
   10.35              145832             155.425        -3.97707e+06         1.23185e+08
   10.37              145024             154.388        -3.95745e+06         1.22618e+08
   10.39              144219             153.357        -3.93788e+06         1.22051e+08
   10.41              143418             152.334        -3.91837e+06         1.21486e+08
   10.43              142620             151.317        -3.89891e+06         1.20922e+08
   10.45              141826             150.307         -3.8795e+06         1.20359e+08
   10.47              141035             149.304        -3.86015e+06         1.19797e+08
   10.49              140247             148.308        -3.84086e+06         1.19236e+08
   10.51              139463             147.319        -3.82162e+06         1.18677e+08
   10.53              138682             146.337        -3.80244e+06         1.18119e+08
   10.55              137905             145.362        -3.78331e+06         1.17563e+08
   10.57              137131             144.394        -3.76425e+06         1.17008e+08
   10.59              136360             143.433        -3.74524e+06         1.16454e+08
   10.61              135593             142.478        -3.72629e+06         1.15901e+08
   10.63              134830             141.531        -3.70741e+06          1.1535e+08
   10.65              134070             140.591        -3.68858e+06           1.148e+08
   10.67              133313             139.658        -3.66981e+06         1.14252e+08
   10.69              132560             138.731        -3.65111e+06         1.13705e+08
   10.71              131811             137.812        -3.63246e+06         1.13159e+08
   10.73              131065               136.9        -3.61388e+06         1.12615e+08
   10.75              130322             135.995        -3.59536e+06         1.12073e+08
   10.77              129584             135.096         -3.5769e+06         1.11532e+08
   10.79              128848             134.205        -3.55851e+06         1.10992e+08
   10.81              128116             133.321        -3.54018e+06         1.10454e+08
   10.83              127388             132.443        -3.52192e+06         1.09917e+08
   10.85              126664             131.573        -3.50372e+06         1.09383e+08
   10.87              125943              130.71        -3.48558e+06         1.08849e+08
   10.89              125225             129.853        -3.46752e+06         1.08317e+08
   10.91              124512             129.004        -3.44951e+06         1.07787e+08
   10.93              123802             128.162        -3.43158e+06         1.07259e+08
   10.95              123095             127.326        -3.41371e+06         1.06732e+08
   10.97              122392             126.498        -3.39591e+06         1.06207e+08
   10.99              121693             125.676        -3.37817e+06         1.05683e+08
   11.01              120997             124.862        -3.36051e+06         1.05161e+08
   11.03              120305             124.054        -3.34291e+06         1.04641e+08
   11.05              119617             123.253        -3.32539e+06         1.04123e+08
   11.07              118933              122.46        -3.30793e+06         1.03606e+08
   11.09              118252             121.673        -3.29054e+06         1.03091e+08
   11.11              117574             120.893        -3.27322e+06         1.02578e+08
   11.13              116901              120.12        -3.25597e+06         1.02066e+08
   11.15              116231             119.354         -3.2388e+06         1.01556e+08
   11.17              115565             118.595        -3.22169e+06         1.01049e+08
   11.19              114902             117.842        -3.20466e+06         1.00542e+08
   11.21              114244             117.097         -3.1877e+06         1.00038e+08
   11.23              113588             116.358        -3.17081e+06         9.95357e+07
   11.25              112937             115.627        -3.15399e+06         9.90351e+07
   11.27              112289             114.902        -3.13725e+06         9.85363e+07
   11.29              111645             114.184        -3.12058e+06         9.80394e+07
   11.31              111005             113.473        -3.10398e+06         9.75444e+07
   11.33              110369             112.768        -3.08746e+06         9.70513e+07
   11.35              109736              112.07        -3.07101e+06         9.65601e+07
   11.37              109107             111.379        -3.05463e+06         9.60708e+07
   11.39              108482             110.695        -3.03833e+06         9.55835e+07
   11.41              107860             110.018        -3.02211e+06          9.5098e+07
   11.43              107242             109.347        -3.00596e+06         9.46146e+07
   11.45              106628             108.683        -2.98988e+06         9.41331e+07
   11.47              106017             108.026        -2.97388e+06         9.36535e+07
   11.49              105411             107.375        -2.95796e+06         9.31759e+07
   11.51              104808             106.731        -2.94211e+06         9.27004e+07
   11.53              104209             106.094        -2.92634e+06         9.22268e+07
   11.55              103613             105.463        -2.91065e+06         9.17552e+07
   11.57              103021             104.839        -2.89503e+06         9.12857e+07
   11.59              102433             104.222        -2.87949e+06         9.08182e+07
   11.61              101849             103.611        -2.86403e+06         9.03527e+07
   11.63              101269             103.006        -2.84864e+06         8.98892e+07
   11.65              100692             102.408        -2.83334e+06         8.94278e+07
   11.67              100119             101.817        -2.81811e+06         8.89685e+07
   11.69             99549.2             101.232        -2.80295e+06         8.85113e+07
   11.71             98983.5             100.654        -2.78788e+06         8.80561e+07
   11.73             98421.6             100.082        -2.77289e+06          8.7603e+07
   11.75             97863.4             99.5159        -2.75797e+06          8.7152e+07
   11.77             97308.9             98.9567        -2.74313e+06         8.67032e+07
   11.79             96758.1             98.4038        -2.72837e+06         8.62564e+07
   11.81             96211.1             97.8572        -2.71369e+06         8.58117e+07
   11.83             95667.7             97.3169        -2.69909e+06         8.53692e+07
   11.85               95128              96.783        -2.68457e+06         8.49288e+07
   11.87             94592.1             96.2552        -2.67013e+06         8.44905e+07
   11.89             94059.8             95.7338        -2.65577e+06         8.40544e+07
   11.91             93531.2             95.2185        -2.64148e+06         8.36204e+07
   11.93             93006.4             94.7094        -2.62728e+06         8.31886e+07
   11.95             92485.2             94.2065        -2.61316e+06         8.27589e+07
   11.97             91967.6             93.7096        -2.59911e+06         8.23314e+07
   11.99             91453.8             93.2189        -2.58515e+06         8.19061e+07
   12.01             90943.6             92.7343        -2.57127e+06         8.14829e+07
   12.03             90437.1             92.2556        -2.55746e+06          8.1062e+07
   12.05             89934.2              91.783        -2.54374e+06         8.06432e+07
   12.07               89435             91.3164         -2.5301e+06         8.02266e+07
   12.09             88939.4             90.8557        -2.51654e+06         7.98122e+07
   12.11             88447.5              90.401        -2.50305e+06            7.94e+07
   12.13             87959.2             89.9521        -2.48965e+06           7.899e+07
   12.15             87474.5             89.5091        -2.47633e+06         7.85822e+07
   12.17             86993.5             89.0719        -2.46309e+06         7.81766e+07
   12.19               86516             88.6405        -2.44993e+06         7.77733e+07
   12.21             86042.2             88.2148        -2.43685e+06         7.73721e+07
   12.23             85571.9             87.7949        -2.42385e+06         7.69732e+07
   12.25             85105.3             87.3807        -2.41093e+06         7.65765e+07
   12.27             84642.2             86.9721        -2.39809e+06          7.6182e+07
   12.29             84182.7             86.5692        -2.38533e+06         7.57897e+07
   12.31             83726.7             86.1718        -2.37265e+06         7.53997e+07
   12.33             83274.4               85.78        -2.36006e+06         7.50119e+07
   12.35             82825.5             85.3938        -2.34754e+06         7.46264e+07
   12.37             82380.2              85.013         -2.3351e+06          7.4243e+07
   12.39             81938.4             84.6376        -2.32275e+06         7.38619e+07
   12.41             81500.1             84.2677        -2.31047e+06         7.34831e+07
   12.43             81065.4             83.9032        -2.29827e+06         7.31065e+07
   12.45             80634.1              83.544        -2.28616e+06         7.27321e+07
   12.47             80206.3             83.1901        -2.27412e+06           7.236e+07
   12.49               79782             82.8414        -2.26217e+06         7.19901e+07
   12.51             79361.2              82.498        -2.25029e+06         7.16224e+07
   12.53             78943.9             82.1598         -2.2385e+06          7.1257e+07
   12.55             78529.9             81.8267        -2.22678e+06         7.08938e+07
   12.57             78119.4             81.4988        -2.21514e+06         7.05329e+07
   12.59             77712.4             81.1759        -2.20359e+06         7.01742e+07
   12.61             77308.7             80.8581        -2.19211e+06         6.98177e+07
   12.63             76908.5             80.5452        -2.18071e+06         6.94635e+07
   12.65             76511.6             80.2373        -2.16939e+06         6.91115e+07
   12.67             76118.2             79.9344        -2.15815e+06         6.87618e+07
   12.69             75728.1             79.6363        -2.14699e+06         6.84143e+07
   12.71             75341.3              79.343        -2.13591e+06          6.8069e+07
   12.73             74957.9             79.0546        -2.12491e+06          6.7726e+07
   12.75             74577.8             78.7709        -2.11398e+06         6.73852e+07
   12.77             74201.1             78.4919        -2.10314e+06         6.70466e+07
   12.79             73827.6             78.2176        -2.09237e+06         6.67102e+07
   12.81             73457.5             77.9479        -2.08168e+06         6.63761e+07
   12.83             73090.6             77.6828        -2.07107e+06         6.60442e+07
   12.85               72727             77.4223        -2.06054e+06         6.57145e+07
   12.87             72366.6             77.1662        -2.05008e+06          6.5387e+07
   12.89             72009.5             76.9147         -2.0397e+06         6.50618e+07
   12.91             71655.6             76.6675         -2.0294e+06         6.47387e+07
   12.93             71304.9             76.4248        -2.01918e+06         6.44179e+07
   12.95             70957.5             76.1863        -2.00903e+06         6.40992e+07
   12.97             70613.2             75.9522        -1.99896e+06         6.37828e+07
   12.99             70272.1             75.7223        -1.98896e+06         6.34685e+07
   13.01             69934.1             75.4966        -1.97905e+06         6.31565e+07
   13.03             69599.3             75.2751         -1.9692e+06         6.28466e+07
   13.05             69267.6             75.0577        -1.95944e+06         6.25389e+07
   13.07               68939             74.8444        -1.94975e+06         6.22334e+07
   13.09             68613.6             74.6351        -1.94013e+06           6.193e+07
   13.11             68291.2             74.4298        -1.93059e+06         6.16289e+07
   13.13             67971.9             74.2285        -1.92113e+06         6.13299e+07
   13.15             67655.6              74.031        -1.91174e+06          6.1033e+07
   13.17             67342.4             73.8375        -1.90242e+06         6.07383e+07
   13.19             67032.2             73.6477        -1.89318e+06         6.04458e+07
   13.21               66725             73.4617        -1.88402e+06         6.01554e+07
   13.23             66420.8             73.2794        -1.87492e+06         5.98671e+07
   13.25             66119.6             73.1008         -1.8659e+06          5.9581e+07
   13.27             65821.4             72.9259        -1.85696e+06          5.9297e+07
   13.29             65526.1             72.7545        -1.84808e+06         5.90151e+07
   13.31             65233.7             72.5867        -1.83928e+06         5.87354e+07
   13.33             64944.2             72.4224        -1.83055e+06         5.84577e+07
   13.35             64657.7             72.2615         -1.8219e+06         5.81822e+07
   13.37               64374             72.1041        -1.81331e+06         5.79087e+07
   13.39             64093.2             71.9501         -1.8048e+06         5.76373e+07
   13.41             63815.2             71.7993        -1.79636e+06          5.7368e+07
   13.43             63540.1             71.6519        -1.78799e+06         5.71008e+07
   13.45             63267.8             71.5077        -1.77969e+06         5.68357e+07
   13.47             62998.3             71.3667        -1.77146e+06         5.65726e+07
   13.49             62731.6             71.2288         -1.7633e+06         5.63115e+07
   13.51             62467.6              71.094        -1.75521e+06         5.60525e+07
   13.53             62206.4             70.9623        -1.74719e+06         5.57956e+07
   13.55             61947.9             70.8337        -1.73924e+06         5.55407e+07
   13.57             61692.2              70.708        -1.73135e+06         5.52878e+07
   13.59             61439.1             70.5852        -1.72354e+06         5.50369e+07
   13.61             61188.7             70.4653        -1.71579e+06          5.4788e+07
   13.63               60941             70.3483        -1.70812e+06         5.45411e+07
   13.65               60696              70.234        -1.70051e+06         5.42962e+07
   13.67             60453.5             70.1225        -1.69296e+06         5.40533e+07
   13.69             60213.7             70.0138        -1.68549e+06         5.38124e+07
   13.71             59976.5             69.9077        -1.67808e+06         5.35734e+07
   13.73             59741.8             69.8042        -1.67074e+06         5.33364e+07
   13.75             59509.7             69.7033        -1.66346e+06         5.31014e+07
   13.77             59280.2              69.605        -1.65625e+06         5.28682e+07
   13.79             59053.2             69.5092         -1.6491e+06         5.26371e+07
   13.81             58828.7             69.4158        -1.64202e+06         5.24078e+07
   13.83             58606.6             69.3248          -1.635e+06         5.21804e+07
   13.85             58387.1             69.2362        -1.62805e+06          5.1955e+07
   13.87               58170             69.1499        -1.62116e+06         5.17314e+07
   13.89             57955.3              69.066        -1.61433e+06         5.15097e+07
   13.91             57743.1             68.9843        -1.60757e+06         5.12899e+07
   13.93             57533.3             68.9047        -1.60087e+06          5.1072e+07
   13.95             57325.8             68.8274        -1.59423e+06         5.08559e+07
   13.97             57120.7             68.7522        -1.58766e+06         5.06417e+07
   13.99               56918              68.679        -1.58114e+06         5.04293e+07
   14.01             56717.5              68.608        -1.57469e+06         5.02188e+07
   14.03             56519.4             68.5389         -1.5683e+06           5.001e+07
   14.05             56323.6             68.4718        -1.56197e+06         4.98031e+07
   14.07             56130.1             68.4066         -1.5557e+06         4.95979e+07
   14.09             55938.8             68.3433        -1.54949e+06         4.93946e+07
   14.11             55749.7             68.2818        -1.54333e+06          4.9193e+07
   14.13             55562.9             68.2222        -1.53724e+06         4.89932e+07
   14.15             55378.3             68.1643        -1.53121e+06         4.87951e+07
   14.17             55195.8             68.1081        -1.52523e+06         4.85988e+07
   14.19             55015.5             68.0537        -1.51931e+06         4.84043e+07
   14.21             54837.4             68.0009        -1.51345e+06         4.82114e+07
   14.23             54661.4             67.9497        -1.50765e+06         4.80203e+07
   14.25             54487.5             67.9002         -1.5019e+06         4.78309e+07
   14.27             54315.7             67.8521        -1.49621e+06         4.76431e+07
   14.29               54146             67.8056        -1.49057e+06         4.74571e+07
   14.31             53978.3             67.7605        -1.48499e+06         4.72727e+07
   14.33             53812.6             67.7169        -1.47947e+06           4.709e+07
   14.35               53649             67.6747          -1.474e+06         4.69089e+07
   14.37             53487.4             67.6338        -1.46858e+06         4.67295e+07
   14.39             53327.8             67.5943        -1.46322e+06         4.65517e+07
   14.41             53170.1             67.5561        -1.45792e+06         4.63755e+07
   14.43             53014.4             67.5191        -1.45266e+06          4.6201e+07
   14.45             52860.6             67.4834        -1.44746e+06          4.6028e+07
   14.47             52708.7             67.4489        -1.44231e+06         4.58566e+07
   14.49             52558.7             67.4155        -1.43721e+06         4.56868e+07
   14.51             52410.6             67.3833        -1.43217e+06         4.55186e+07
   14.53             52264.3             67.3521        -1.42717e+06         4.53519e+07
   14.55             52119.9              67.322        -1.42223e+06         4.51867e+07
   14.57             51977.3              67.293        -1.41733e+06         4.50231e+07
   14.59             51836.5             67.2649        -1.41249e+06          4.4861e+07
   14.61             51697.5             67.2378        -1.40769e+06         4.47004e+07
   14.63             51560.2             67.2117        -1.40295e+06         4.45413e+07
   14.65             51424.7             67.1864        -1.39825e+06         4.43837e+07
   14.67             51290.9             67.1621         -1.3936e+06         4.42275e+07
   14.69             51158.8             67.1386          -1.389e+06         4.40728e+07
   14.71             51028.5             67.1159        -1.38445e+06         4.39196e+07
   14.73             50899.8             67.0939        -1.37995e+06         4.37678e+07
   14.75             50772.7             67.0728        -1.37549e+06         4.36174e+07
   14.77             50647.3             67.0523        -1.37108e+06         4.34685e+07
   14.79             50523.6             67.0326        -1.36671e+06         4.33209e+07
   14.81             50401.4             67.0136        -1.36239e+06         4.31748e+07
   14.83             50280.8             66.9952        -1.35811e+06           4.303e+07
   14.85             50161.8             66.9774        -1.35388e+06         4.28866e+07
   14.87             50044.4             66.9602         -1.3497e+06         4.27446e+07
   14.89             49928.4             66.9435        -1.34555e+06         4.26039e+07
   14.91               49814             66.9274        -1.34145e+06         4.24645e+07
   14.93             49701.2             66.9118         -1.3374e+06         4.23265e+07
   14.95             49589.7             66.8967        -1.33338e+06         4.21898e+07
   14.97             49479.8             66.8821        -1.32941e+06         4.20544e+07
   14.99             49371.3             66.8679        -1.32548e+06         4.19202e+07
   15.01             49264.2             66.8541         -1.3216e+06         4.17874e+07
   15.03             49158.6             66.8407        -1.31775e+06         4.16558e+07
   15.05             49054.3             66.8276        -1.31395e+06         4.15255e+07
   15.07             48951.5             66.8149        -1.31018e+06         4.13964e+07
   15.09               48850             66.8025        -1.30646e+06         4.12686e+07
   15.11             48749.8             66.7904        -1.30277e+06          4.1142e+07
   15.13               48651             66.7786        -1.29912e+06         4.10166e+07
   15.15             48553.5              66.767        -1.29552e+06         4.08924e+07
   15.17             48457.3             66.7557        -1.29195e+06         4.07693e+07
   15.19             48362.4             66.7445        -1.28842e+06         4.06475e+07
   15.21             48268.7             66.7335        -1.28492e+06         4.05268e+07
   15.23             48176.3             66.7227        -1.28147e+06         4.04073e+07
   15.25             48085.1              66.712        -1.27805e+06          4.0289e+07
   15.27             47995.2             66.7014        -1.27467e+06         4.01717e+07
   15.29             47906.4              66.691        -1.27132e+06         4.00556e+07
   15.31             47818.8             66.6806        -1.26801e+06         3.99406e+07
   15.33             47732.4             66.6702        -1.26473e+06         3.98267e+07
   15.35             47647.2             66.6599        -1.26149e+06         3.97139e+07
   15.37             47563.1             66.6497        -1.25829e+06         3.96021e+07
   15.39             47480.1             66.6394        -1.25512e+06         3.94915e+07
   15.41             47398.2             66.6291        -1.25198e+06         3.93819e+07
   15.43             47317.4             66.6187        -1.24888e+06         3.92733e+07
   15.45             47237.7             66.6084         -1.2458e+06         3.91657e+07
   15.47               47159             66.5979        -1.24277e+06         3.90592e+07
   15.49             47081.4             66.5873        -1.23976e+06         3.89537e+07
   15.51             47004.8             66.5767        -1.23679e+06         3.88492e+07
   15.53             46929.2             66.5659        -1.23384e+06         3.87457e+07
   15.55             46854.6             66.5549        -1.23093e+06         3.86432e+07
   15.57             46781.1             66.5438        -1.22805e+06         3.85416e+07
   15.59             46708.4             66.5326         -1.2252e+06          3.8441e+07
   15.61             46636.8             66.5211        -1.22239e+06         3.83414e+07
   15.63               46566             66.5094         -1.2196e+06         3.82427e+07
   15.65             46496.2             66.4976        -1.21684e+06         3.81449e+07
   15.67             46427.3             66.4854        -1.21411e+06          3.8048e+07
   15.69             46359.4              66.473         -1.2114e+06         3.79521e+07
   15.71             46292.2             66.4604        -1.20873e+06          3.7857e+07
   15.73               46226             66.4475        -1.20609e+06         3.77628e+07
   15.75             46160.6             66.4342        -1.20347e+06         3.76695e+07
   15.77             46096.1             66.4207        -1.20088e+06         3.75771e+07
   15.79             46032.3             66.4068        -1.19832e+06         3.74855e+07
   15.81             45969.4             66.3926        -1.19578e+06         3.73948e+07
   15.83             45907.3             66.3781        -1.19327e+06         3.73049e+07
   15.85               45846             66.3632        -1.19079e+06         3.72158e+07
   15.87             45785.4             66.3479        -1.18833e+06         3.71275e+07
   15.89             45725.7             66.3322         -1.1859e+06         3.70401e+07
   15.91             45666.6             66.3161        -1.18349e+06         3.69534e+07
   15.93             45608.3             66.2996        -1.18111e+06         3.68676e+07
   15.95             45550.7             66.2827        -1.17875e+06         3.67825e+07
   15.97             45493.8             66.2653        -1.17641e+06         3.66982e+07
   15.99             45437.6             66.2475         -1.1741e+06         3.66146e+07
   16.01             45382.1             66.2292        -1.17182e+06         3.65318e+07
   16.03             45327.2             66.2104        -1.16955e+06         3.64497e+07
   16.05               45273             66.1912        -1.16731e+06         3.63684e+07
   16.07             45219.5             66.1715         -1.1651e+06         3.62877e+07
   16.09             45166.6             66.1512         -1.1629e+06         3.62078e+07
   16.11             45114.2             66.1305        -1.16073e+06         3.61286e+07
   16.13             45062.5             66.1092        -1.15858e+06         3.60501e+07
   16.15             45011.4             66.0874        -1.15644e+06         3.59723e+07
   16.17             44960.9              66.065        -1.15433e+06         3.58951e+07
   16.19               44911             66.0421        -1.15225e+06         3.58186e+07
   16.21             44861.6             66.0186        -1.15018e+06         3.57428e+07
   16.23             44812.7             65.9945        -1.14813e+06         3.56676e+07
   16.25             44764.4             65.9698         -1.1461e+06         3.55931e+07
   16.27             44716.6             65.9446        -1.14409e+06         3.55191e+07
   16.29             44669.4             65.9187         -1.1421e+06         3.54459e+07
   16.31             44622.6             65.8923        -1.14013e+06         3.53732e+07
   16.33             44576.3             65.8652        -1.13818e+06         3.53011e+07
   16.35             44530.5             65.8375        -1.13625e+06         3.52296e+07
   16.37             44485.2             65.8091        -1.13433e+06         3.51588e+07
   16.39             44440.3             65.7801        -1.13244e+06         3.50885e+07
   16.41             44395.9             65.7505        -1.13056e+06         3.50188e+07
   16.43             44351.9             65.7202         -1.1287e+06         3.49496e+07
   16.45             44308.4             65.6892        -1.12685e+06          3.4881e+07
   16.47             44265.2             65.6576        -1.12502e+06          3.4813e+07
   16.49             44222.5             65.6252        -1.12321e+06         3.47455e+07
   16.51             44180.1             65.5922        -1.12142e+06         3.46785e+07
   16.53             44138.2             65.5585        -1.11964e+06         3.46121e+07
   16.55             44096.6             65.5241        -1.11788e+06         3.45461e+07
   16.57             44055.4             65.4889        -1.11613e+06         3.44807e+07
   16.59             44014.6             65.4531         -1.1144e+06         3.44158e+07
   16.61             43974.1             65.4165        -1.11268e+06         3.43514e+07
   16.63             43933.9             65.3792        -1.11098e+06         3.42875e+07
   16.65             43894.1             65.3412        -1.10929e+06         3.42241e+07
   16.67             43854.6             65.3024        -1.10762e+06         3.41611e+07
   16.69             43815.4             65.2629        -1.10596e+06         3.40986e+07
   16.71             43776.5             65.2227        -1.10432e+06         3.40366e+07
   16.73             43737.9             65.1816        -1.10269e+06          3.3975e+07
   16.75             43699.6             65.1398        -1.10107e+06         3.39139e+07
   16.77             43661.5             65.0973        -1.09947e+06         3.38532e+07
   16.79             43623.8              65.054        -1.09788e+06          3.3793e+07
   16.81             43586.3             65.0099         -1.0963e+06         3.37332e+07
   16.83               43549              64.965        -1.09474e+06         3.36738e+07
   16.85               43512             64.9193        -1.09318e+06         3.36148e+07
   16.87             43475.2             64.8728        -1.09164e+06         3.35563e+07
   16.89             43438.7             64.8256        -1.09012e+06         3.34981e+07
   16.91             43402.3             64.7775         -1.0886e+06         3.34403e+07
   16.93             43366.2             64.7287        -1.08709e+06          3.3383e+07
   16.95             43330.3              64.679         -1.0856e+06          3.3326e+07
   16.97             43294.6             64.6285        -1.08412e+06         3.32694e+07
   16.99               43259             64.5772        -1.08265e+06         3.32131e+07
   17.01             43223.7             64.5251        -1.08119e+06         3.31573e+07
   17.03             43188.5             64.4722        -1.07974e+06         3.31018e+07
   17.05             43153.5             64.4185         -1.0783e+06         3.30466e+07
   17.07             43118.7             64.3639        -1.07687e+06         3.29918e+07
   17.09               43084             64.3085        -1.07545e+06         3.29374e+07
   17.11             43049.5             64.2522        -1.07405e+06         3.28833e+07
   17.13             43015.1             64.1951        -1.07265e+06         3.28295e+07
   17.15             42980.8             64.1372        -1.07126e+06         3.27761e+07
   17.17             42946.7             64.0785        -1.06988e+06          3.2723e+07
   17.19             42912.7             64.0189        -1.06851e+06         3.26702e+07
   17.21             42878.8             63.9584        -1.06715e+06         3.26177e+07
   17.23               42845             63.8971         -1.0658e+06         3.25655e+07
   17.25             42811.3              63.835        -1.06445e+06         3.25136e+07
   17.27             42777.7              63.772        -1.06312e+06         3.24621e+07
   17.29             42744.2             63.7082        -1.06179e+06         3.24108e+07
   17.31             42710.8             63.6435        -1.06047e+06         3.23598e+07
   17.33             42677.5             63.5779        -1.05917e+06         3.23092e+07
   17.35             42644.2             63.5115        -1.05786e+06         3.22587e+07
   17.37             42611.1             63.4442        -1.05657e+06         3.22086e+07
   17.39             42577.9             63.3761        -1.05528e+06         3.21588e+07
   17.41             42544.9             63.3071        -1.05401e+06         3.21092e+07
   17.43             42511.9             63.2373        -1.05274e+06         3.20599e+07
   17.45             42478.9             63.1666        -1.05147e+06         3.20108e+07
   17.47               42446              63.095        -1.05022e+06          3.1962e+07
   17.49             42413.1             63.0225        -1.04897e+06         3.19135e+07
   17.51             42380.3             62.9493        -1.04772e+06         3.18652e+07
   17.53             42347.5             62.8751        -1.04649e+06         3.18171e+07
   17.55             42314.7             62.8001        -1.04526e+06         3.17693e+07
   17.57               42282             62.7242        -1.04404e+06         3.17217e+07
   17.59             42249.2             62.6474        -1.04282e+06         3.16744e+07
   17.61             42216.5             62.5698        -1.04161e+06         3.16273e+07
   17.63             42183.8             62.4914        -1.04041e+06         3.15804e+07
   17.65             42151.1              62.412        -1.03921e+06         3.15338e+07
   17.67             42118.4             62.3318        -1.03802e+06         3.14874e+07
   17.69             42085.7             62.2508        -1.03684e+06         3.14412e+07
   17.71             42052.9             62.1689        -1.03566e+06         3.13952e+07
   17.73             42020.2             62.0861        -1.03449e+06         3.13494e+07
   17.75             41987.5             62.0025        -1.03332e+06         3.13039e+07
   17.77             41954.7              61.918        -1.03216e+06         3.12585e+07
   17.79             41921.9             61.8326          -1.031e+06         3.12133e+07
   17.81             41889.1             61.7464        -1.02985e+06         3.11684e+07
   17.83             41856.3             61.6594         -1.0287e+06         3.11236e+07
   17.85             41823.4             61.5715        -1.02756e+06         3.10791e+07
   17.87             41790.5             61.4828        -1.02643e+06         3.10347e+07
   17.89             41757.6             61.3932         -1.0253e+06         3.09905e+07
   17.91             41724.6             61.3027        -1.02417e+06         3.09466e+07
   17.93             41691.6             61.2114        -1.02305e+06         3.09028e+07
   17.95             41658.5             61.1193        -1.02193e+06         3.08592e+07
   17.97             41625.4             61.0264        -1.02082e+06         3.08157e+07
   17.99             41592.3             60.9326        -1.01971e+06         3.07725e+07
   18.01               41559             60.8379        -1.01861e+06         3.07294e+07
   18.03             41525.8             60.7425        -1.01751e+06         3.06865e+07
   18.05             41492.5             60.6462        -1.01642e+06         3.06438e+07
   18.07             41459.1             60.5491        -1.01533e+06         3.06012e+07
   18.09             41425.6             60.4511        -1.01424e+06         3.05588e+07
   18.11             41392.1             60.3524        -1.01316e+06         3.05166e+07
   18.13             41358.6             60.2528        -1.01208e+06         3.04746e+07
   18.15             41324.9             60.1524        -1.01101e+06         3.04327e+07
   18.17             41291.2             60.0512        -1.00994e+06          3.0391e+07
   18.19             41257.4             59.9492        -1.00888e+06         3.03494e+07
   18.21             41223.6             59.8464        -1.00782e+06          3.0308e+07
   18.23             41189.6             59.7428        -1.00676e+06         3.02668e+07
   18.25             41155.6             59.6384         -1.0057e+06         3.02257e+07
   18.27             41121.6             59.5332        -1.00465e+06         3.01848e+07
   18.29             41087.4             59.4272        -1.00361e+06          3.0144e+07
   18.31             41053.2             59.3205        -1.00257e+06         3.01034e+07
   18.33             41018.8             59.2129        -1.00153e+06         3.00629e+07
   18.35             40984.4             59.1046        -1.00049e+06         3.00226e+07
   18.37             40949.9             58.9955             -999458         2.99824e+07
   18.39             40915.4             58.8857             -998430         2.99424e+07
   18.41             40880.7              58.775             -997404         2.99025e+07
   18.43             40845.9             58.6636             -996383         2.98628e+07
   18.45             40811.1             58.5515             -995364         2.98232e+07
   18.47             40776.2             58.4386             -994349         2.97838e+07
   18.49             40741.2              58.325             -993337         2.97445e+07
   18.51             40706.1             58.2106             -992329         2.97053e+07
   18.53             40670.9             58.0955             -991323         2.96663e+07
   18.55             40635.6             57.9797             -990321         2.96275e+07
   18.57             40600.2             57.8631             -989322         2.95887e+07
   18.59             40564.7             57.7458             -988326         2.95502e+07
   18.61             40529.2             57.6278             -987333         2.95117e+07
   18.63             40493.5             57.5091             -986344         2.94734e+07
   18.65             40457.8             57.3897             -985357         2.94353e+07
   18.67             40421.9             57.2696             -984374         2.93972e+07
   18.69               40386             57.1488             -983393         2.93594e+07
   18.71             40349.9             57.0273             -982416         2.93216e+07
   18.73             40313.8             56.9051             -981441          2.9284e+07
   18.75             40277.6             56.7823             -980470         2.92465e+07
   18.77             40241.3             56.6588             -979501         2.92092e+07
   18.79             40204.8             56.5346             -978536          2.9172e+07
   18.81             40168.3             56.4098             -977573         2.91349e+07
   18.83             40131.7             56.2843             -976613          2.9098e+07
   18.85               40095             56.1581             -975657         2.90612e+07
   18.87             40058.2             56.0314             -974703         2.90246e+07
   18.89             40021.4              55.904             -973752         2.89881e+07
   18.91             39984.4             55.7759             -972804         2.89517e+07
   18.93             39947.3             55.6473             -971859         2.89155e+07
   18.95             39910.1              55.518             -970916         2.88794e+07
   18.97             39872.9             55.3881             -969977         2.88434e+07
   18.99             39835.5             55.2577             -969040         2.88076e+07
   19.01             39798.1             55.1266             -968107         2.87719e+07
   19.03             39760.6             54.9949             -967176         2.87364e+07
   19.05               39723             54.8627             -966248          2.8701e+07
   19.07             39685.2             54.7299             -965323         2.86657e+07
   19.09             39647.4             54.5965             -964401         2.86306e+07
   19.11             39609.6             54.4626             -963482         2.85956e+07
   19.13             39571.6             54.3281             -962565         2.85607e+07
   19.15             39533.5              54.193             -961652          2.8526e+07
   19.17             39495.4             54.0574             -960741         2.84914e+07
   19.19             39457.1             53.9213             -959833          2.8457e+07
   19.21             39418.8             53.7847             -958929         2.84227e+07
   19.23             39380.4             53.6475             -958027         2.83885e+07
   19.25             39341.9             53.5099             -957128         2.83545e+07
   19.27             39303.4             53.3717             -956231         2.83207e+07
   19.29             39264.7              53.233             -955338         2.82869e+07
   19.31               39226             53.0939             -954448         2.82534e+07
   19.33             39187.2             52.9542             -953561         2.82199e+07
   19.35             39148.3             52.8141             -952676         2.81866e+07
   19.37             39109.4             52.6735             -951795         2.81535e+07
   19.39             39070.3             52.5325             -950916         2.81205e+07
   19.41             39031.2              52.391             -950041         2.80876e+07
   19.43               38992             52.2491             -949168         2.80549e+07
   19.45             38952.8             52.1067             -948299         2.80224e+07
   19.47             38913.4             51.9639             -947432           2.799e+07
   19.49             38874.1             51.8207             -946569         2.79577e+07
   19.51             38834.6              51.677             -945708         2.79256e+07
   19.53             38795.1              51.533             -944851         2.78936e+07
   19.55             38755.5             51.3885             -943996         2.78618e+07
   19.57             38715.8             51.2437             -943145         2.78301e+07
   19.59             38676.1             51.0985             -942297         2.77986e+07
   19.61             38636.3             50.9529             -941451         2.77673e+07
   19.63             38596.4             50.8069             -940609         2.77361e+07
   19.65             38556.5             50.6606             -939770          2.7705e+07
   19.67             38516.5              50.514             -938935         2.76741e+07
   19.69             38476.5              50.367             -938102         2.76434e+07
   19.71             38436.4             50.2196             -937272         2.76128e+07
   19.73             38396.3             50.0719             -936446         2.75824e+07
   19.75             38356.1             49.9239             -935623         2.75521e+07
   19.77             38315.9             49.7756             -934803          2.7522e+07
   19.79             38275.6              49.627             -933986         2.74921e+07
   19.81             38235.2             49.4781             -933173         2.74623e+07
   19.83             38194.8             49.3289             -932362         2.74327e+07
   19.85             38154.4             49.1794             -931555         2.74032e+07
   19.87             38113.9             49.0297             -930752         2.73739e+07
   19.89             38073.4             48.8797             -929951         2.73448e+07
   19.91             38032.8             48.7294             -929154         2.73158e+07
   19.93             37992.2             48.5789             -928360          2.7287e+07
   19.95             37951.5             48.4281             -927570         2.72584e+07
   19.97             37910.8             48.2772             -926782         2.72299e+07
   19.99             37870.1             48.1259             -925999         2.72016e+07
