## w(eV)         sigma(Sm^-1)     kappa(W(mK)^-1)        L12/e(Am^-1)      L22/e^2(Wm^-1)
    0.01              538193             858.544         -1.1068e+07         3.08948e+08
    0.03              538188             858.533         -1.1068e+07         3.08946e+08
    0.05              538179             858.512        -1.10678e+07         3.08943e+08
    0.07              538166             858.481        -1.10676e+07         3.08938e+08
    0.09              538148             858.439        -1.10674e+07         3.08931e+08
    0.11              538125             858.386        -1.10671e+07         3.08922e+08
    0.13              538098             858.323        -1.10667e+07         3.08912e+08
    0.15              538066              858.25        -1.10662e+07           3.089e+08
    0.17              538030             858.166        -1.10657e+07         3.08886e+08
    0.19              537990             858.072        -1.10651e+07          3.0887e+08
    0.21              537945             857.967        -1.10645e+07         3.08853e+08
    0.23              537895             857.851        -1.10638e+07         3.08834e+08
    0.25              537841             857.726         -1.1063e+07         3.08813e+08
    0.27              537782             857.589        -1.10622e+07         3.08791e+08
    0.29              537719             857.443        -1.10613e+07         3.08767e+08
    0.31              537651             857.285        -1.10603e+07         3.08741e+08
    0.33              537579             857.118        -1.10593e+07         3.08713e+08
    0.35              537502              856.94        -1.10582e+07         3.08684e+08
    0.37              537421             856.751         -1.1057e+07         3.08653e+08
    0.39              537335             856.553        -1.10558e+07          3.0862e+08
    0.41              537245             856.343        -1.10545e+07         3.08586e+08
    0.43              537150             856.124        -1.10532e+07          3.0855e+08
    0.45              537051             855.894        -1.10518e+07         3.08512e+08
    0.47              536948             855.653        -1.10503e+07         3.08472e+08
    0.49              536839             855.402        -1.10488e+07         3.08431e+08
    0.51              536727             855.141        -1.10472e+07         3.08387e+08
    0.53              536609              854.87        -1.10455e+07         3.08343e+08
    0.55              536488             854.588        -1.10438e+07         3.08296e+08
    0.57              536361             854.296         -1.1042e+07         3.08248e+08
    0.59              536231             853.993        -1.10401e+07         3.08198e+08
    0.61              536096              853.68        -1.10382e+07         3.08146e+08
    0.63              535956             853.357        -1.10362e+07         3.08092e+08
    0.65              535812             853.024        -1.10341e+07         3.08037e+08
    0.67              535663             852.681         -1.1032e+07          3.0798e+08
    0.69              535510             852.327        -1.10298e+07         3.07922e+08
    0.71              535352             851.963        -1.10275e+07         3.07861e+08
    0.73              535190             851.588        -1.10252e+07         3.07799e+08
    0.75              535024             851.204        -1.10228e+07         3.07735e+08
    0.77              534852             850.809        -1.10204e+07          3.0767e+08
    0.79              534677             850.405        -1.10179e+07         3.07602e+08
    0.81              534497              849.99        -1.10153e+07         3.07533e+08
    0.83              534312             849.565        -1.10127e+07         3.07463e+08
    0.85              534123             849.129          -1.101e+07          3.0739e+08
    0.87              533930             848.684        -1.10072e+07         3.07316e+08
    0.89              533732             848.229        -1.10044e+07          3.0724e+08
    0.91              533530             847.763        -1.10015e+07         3.07162e+08
    0.93              533323             847.288        -1.09985e+07         3.07083e+08
    0.95              533112             846.802        -1.09955e+07         3.07002e+08
    0.97              532896             846.307        -1.09924e+07         3.06919e+08
    0.99              532676             845.802        -1.09892e+07         3.06834e+08
    1.01              532451             845.286         -1.0986e+07         3.06748e+08
    1.03              532222             844.761        -1.09827e+07          3.0666e+08
    1.05              531989             844.226        -1.09793e+07          3.0657e+08
    1.07              531751             843.681        -1.09759e+07         3.06479e+08
    1.09              531508             843.126        -1.09724e+07         3.06385e+08
    1.11              531261             842.561        -1.09689e+07          3.0629e+08
    1.13              531010             841.986        -1.09652e+07         3.06194e+08
    1.15              530754             841.402        -1.09616e+07         3.06095e+08
    1.17              530494             840.808        -1.09578e+07         3.05995e+08
    1.19              530230             840.204         -1.0954e+07         3.05893e+08
    1.21              529961             839.591        -1.09501e+07         3.05789e+08
    1.23              529687             838.967        -1.09462e+07         3.05684e+08
    1.25              529410             838.334        -1.09422e+07         3.05577e+08
    1.27              529127             837.692        -1.09381e+07         3.05468e+08
    1.29              528841              837.04        -1.09339e+07         3.05357e+08
    1.31              528550             836.378        -1.09297e+07         3.05245e+08
    1.33              528254             835.706        -1.09255e+07         3.05131e+08
    1.35              527955             835.026        -1.09211e+07         3.05015e+08
    1.37              527650             834.335        -1.09167e+07         3.04897e+08
    1.39              527342             833.635        -1.09122e+07         3.04778e+08
    1.41              527029             832.926        -1.09077e+07         3.04657e+08
    1.43              526711             832.207        -1.09031e+07         3.04534e+08
    1.45              526390             831.479        -1.08984e+07          3.0441e+08
    1.47              526064             830.742        -1.08937e+07         3.04284e+08
    1.49              525733             829.995        -1.08889e+07         3.04156e+08
    1.51              525398             829.239         -1.0884e+07         3.04026e+08
    1.53              525059             828.474        -1.08791e+07         3.03894e+08
    1.55              524716             827.699        -1.08741e+07         3.03761e+08
    1.57              524368             826.916         -1.0869e+07         3.03626e+08
    1.59              524015             826.123        -1.08639e+07          3.0349e+08
    1.61              523659             825.321        -1.08587e+07         3.03351e+08
    1.63              523298              824.51        -1.08534e+07         3.03211e+08
    1.65              522933              823.69         -1.0848e+07         3.03069e+08
    1.67              522563              822.86        -1.08426e+07         3.02925e+08
    1.69              522189             822.022        -1.08372e+07          3.0278e+08
    1.71              521811             821.175        -1.08316e+07         3.02633e+08
    1.73              521428             820.319         -1.0826e+07         3.02484e+08
    1.75              521041             819.454        -1.08204e+07         3.02333e+08
    1.77              520650              818.58        -1.08146e+07         3.02181e+08
    1.79              520255             817.697        -1.08088e+07         3.02027e+08
    1.81              519855             816.806        -1.08029e+07         3.01871e+08
    1.83              519451             815.905         -1.0797e+07         3.01713e+08
    1.85              519042             814.996         -1.0791e+07         3.01554e+08
    1.87              518630             814.079        -1.07849e+07         3.01393e+08
    1.89              518213             813.153        -1.07788e+07          3.0123e+08
    1.91              517792             812.218        -1.07726e+07         3.01065e+08
    1.93              517366             811.274        -1.07663e+07         3.00899e+08
    1.95              516936             810.322          -1.076e+07         3.00731e+08
    1.97              516502             809.362        -1.07535e+07         3.00561e+08
    1.99              516064             808.393        -1.07471e+07         3.00389e+08
    2.01              515622             807.415        -1.07405e+07         3.00216e+08
    2.03              515175             806.429        -1.07339e+07         3.00041e+08
    2.05              514724             805.435        -1.07272e+07         2.99864e+08
    2.07              514269             804.433        -1.07205e+07         2.99685e+08
    2.09              513810             803.422        -1.07137e+07         2.99505e+08
    2.11              513346             802.403        -1.07068e+07         2.99323e+08
    2.13              512878             801.376        -1.06998e+07         2.99139e+08
    2.15              512406             800.341        -1.06928e+07         2.98953e+08
    2.17              511930             799.298        -1.06857e+07         2.98766e+08
    2.19              511450             798.246        -1.06785e+07         2.98577e+08
    2.21              510965             797.187        -1.06713e+07         2.98386e+08
    2.23              510476             796.119         -1.0664e+07         2.98193e+08
    2.25              509983             795.044        -1.06567e+07         2.97999e+08
    2.27              509486             793.961        -1.06492e+07         2.97803e+08
    2.29              508985              792.87        -1.06417e+07         2.97605e+08
    2.31              508480             791.771        -1.06342e+07         2.97405e+08
    2.33              507970             790.664        -1.06265e+07         2.97204e+08
    2.35              507457              789.55        -1.06188e+07         2.97001e+08
    2.37              506939             788.427         -1.0611e+07         2.96796e+08
    2.39              506417             787.298        -1.06032e+07         2.96589e+08
    2.41              505891              786.16        -1.05953e+07         2.96381e+08
    2.43              505361             785.015        -1.05873e+07          2.9617e+08
    2.45              504827             783.863        -1.05793e+07         2.95958e+08
    2.47              504288             782.703        -1.05711e+07         2.95745e+08
    2.49              503746             781.536        -1.05629e+07         2.95529e+08
    2.51              503200             780.361        -1.05547e+07         2.95312e+08
    2.53              502649             779.179        -1.05464e+07         2.95093e+08
    2.55              502094              777.99         -1.0538e+07         2.94872e+08
    2.57              501536             776.793        -1.05295e+07          2.9465e+08
    2.59              500973             775.589         -1.0521e+07         2.94425e+08
    2.61              500406             774.378        -1.05124e+07         2.94199e+08
    2.63              499836              773.16        -1.05037e+07         2.93972e+08
    2.65              499261             771.935         -1.0495e+07         2.93742e+08
    2.67              498682             770.703        -1.04862e+07         2.93511e+08
    2.69              498099             769.464        -1.04773e+07         2.93278e+08
    2.71              497513             768.217        -1.04683e+07         2.93043e+08
    2.73              496922             766.964        -1.04593e+07         2.92806e+08
    2.75              496327             765.705        -1.04502e+07         2.92568e+08
    2.77              495728             764.438        -1.04411e+07         2.92328e+08
    2.79              495126             763.165        -1.04318e+07         2.92086e+08
    2.81              494519             761.885        -1.04226e+07         2.91842e+08
    2.83              493908             760.598        -1.04132e+07         2.91597e+08
    2.85              493294             759.304        -1.04038e+07          2.9135e+08
    2.87              492675             758.005        -1.03942e+07         2.91101e+08
    2.89              492053             756.698        -1.03847e+07          2.9085e+08
    2.91              491427             755.385         -1.0375e+07         2.90598e+08
    2.93              490796             754.066        -1.03653e+07         2.90344e+08
    2.95              490162              752.74        -1.03555e+07         2.90088e+08
    2.97              489524             751.408        -1.03457e+07          2.8983e+08
    2.99              488883              750.07        -1.03358e+07          2.8957e+08
    3.01              488237             748.725        -1.03258e+07         2.89309e+08
    3.03              487587             747.375        -1.03157e+07         2.89046e+08
    3.05              486934             746.018        -1.03056e+07         2.88781e+08
    3.07              486277             744.655        -1.02954e+07         2.88515e+08
    3.09              485616             743.286        -1.02851e+07         2.88247e+08
    3.11              484951             741.911        -1.02748e+07         2.87977e+08
    3.13              484282              740.53        -1.02643e+07         2.87705e+08
    3.15              483610             739.143        -1.02539e+07         2.87431e+08
    3.17              482933             737.751        -1.02433e+07         2.87156e+08
    3.19              482253             736.352        -1.02327e+07         2.86879e+08
    3.21              481569             734.948         -1.0222e+07           2.866e+08
    3.23              480882             733.538        -1.02112e+07         2.86319e+08
    3.25              480191             732.122        -1.02004e+07         2.86037e+08
    3.27              479496             730.701        -1.01895e+07         2.85753e+08
    3.29              478797             729.274        -1.01785e+07         2.85467e+08
    3.31              478094             727.842        -1.01675e+07         2.85179e+08
    3.33              477388             726.404        -1.01564e+07          2.8489e+08
    3.35              476678             724.961        -1.01452e+07         2.84598e+08
    3.37              475965             723.513        -1.01339e+07         2.84305e+08
    3.39              475248             722.059        -1.01226e+07         2.84011e+08
    3.41              474527               720.6        -1.01112e+07         2.83714e+08
    3.43              473802             719.136        -1.00998e+07         2.83416e+08
    3.45              473074             717.666        -1.00882e+07         2.83116e+08
    3.47              472342             716.192        -1.00766e+07         2.82814e+08
    3.49              471607             714.712         -1.0065e+07         2.82511e+08
    3.51              470868             713.227        -1.00532e+07         2.82206e+08
    3.53              470126             711.738        -1.00414e+07         2.81899e+08
    3.55              469379             710.243        -1.00295e+07          2.8159e+08
    3.57              468630             708.744        -1.00176e+07         2.81279e+08
    3.59              467876             707.239        -1.00055e+07         2.80967e+08
    3.61              467120              705.73        -9.99345e+06         2.80653e+08
    3.63              466359             704.217        -9.98128e+06         2.80337e+08
    3.65              465596             702.698        -9.96905e+06          2.8002e+08
    3.67              464828             701.175        -9.95675e+06           2.797e+08
    3.69              464057             699.648        -9.94438e+06         2.79379e+08
    3.71              463283             698.115        -9.93194e+06         2.79057e+08
    3.73              462505             696.579        -9.91943e+06         2.78732e+08
    3.75              461724             695.038        -9.90684e+06         2.78406e+08
    3.77              460940             693.492        -9.89419e+06         2.78078e+08
    3.79              460152             691.942        -9.88147e+06         2.77748e+08
    3.81              459360             690.388        -9.86868e+06         2.77417e+08
    3.83              458565              688.83        -9.85582e+06         2.77083e+08
    3.85              457767             687.267        -9.84289e+06         2.76748e+08
    3.87              456965             685.701         -9.8299e+06         2.76412e+08
    3.89              456160              684.13        -9.81683e+06         2.76073e+08
    3.91              455352             682.555        -9.80369e+06         2.75733e+08
    3.93              454540             680.977        -9.79048e+06         2.75391e+08
    3.95              453725             679.394        -9.77721e+06         2.75047e+08
    3.97              452907             677.807        -9.76386e+06         2.74702e+08
    3.99              452086             676.217        -9.75045e+06         2.74355e+08
    4.01              451261             674.623        -9.73696e+06         2.74006e+08
    4.03              450433             673.025        -9.72341e+06         2.73655e+08
    4.05              449601             671.423        -9.70979e+06         2.73303e+08
    4.07              448767             669.817         -9.6961e+06         2.72949e+08
    4.09              447929             668.209        -9.68234e+06         2.72593e+08
    4.11              447088             666.596        -9.66851e+06         2.72235e+08
    4.13              446244              664.98        -9.65462e+06         2.71876e+08
    4.15              445396             663.361        -9.64065e+06         2.71515e+08
    4.17              444546             661.738        -9.62662e+06         2.71152e+08
    4.19              443692             660.111        -9.61252e+06         2.70788e+08
    4.21              442835             658.482        -9.59834e+06         2.70421e+08
    4.23              441975             656.849        -9.58411e+06         2.70054e+08
    4.25              441112             655.213         -9.5698e+06         2.69684e+08
    4.27              440246             653.574        -9.55542e+06         2.69313e+08
    4.29              439377             651.931        -9.54098e+06          2.6894e+08
    4.31              438505             650.286        -9.52647e+06         2.68565e+08
    4.33              437629             648.638        -9.51189e+06         2.68188e+08
    4.35              436751             646.986        -9.49724e+06          2.6781e+08
    4.37              435870             645.332        -9.48253e+06          2.6743e+08
    4.39              434985             643.675        -9.46775e+06         2.67049e+08
    4.41              434098             642.015         -9.4529e+06         2.66666e+08
    4.43              433208             640.352        -9.43798e+06         2.66281e+08
    4.45              432315             638.686          -9.423e+06         2.65894e+08
    4.47              431418             637.018        -9.40795e+06         2.65506e+08
    4.49              430519             635.347        -9.39283e+06         2.65116e+08
    4.51              429617             633.673        -9.37765e+06         2.64724e+08
    4.53              428713             631.997         -9.3624e+06          2.6433e+08
    4.55              427805             630.318        -9.34708e+06         2.63935e+08
    4.57              426895             628.637         -9.3317e+06         2.63539e+08
    4.59              425981             626.954        -9.31625e+06          2.6314e+08
    4.61              425065             625.268        -9.30073e+06          2.6274e+08
    4.63              424146              623.58        -9.28515e+06         2.62338e+08
    4.65              423224             621.889         -9.2695e+06         2.61935e+08
    4.67              422300             620.196        -9.25379e+06          2.6153e+08
    4.69              421373             618.502        -9.23801e+06         2.61123e+08
    4.71              420443             616.804        -9.22217e+06         2.60714e+08
    4.73              419510             615.105        -9.20626e+06         2.60304e+08
    4.75              418575             613.404        -9.19028e+06         2.59892e+08
    4.77              417637             611.701        -9.17424e+06         2.59479e+08
    4.79              416696             609.996        -9.15814e+06         2.59064e+08
    4.81              415753             608.289        -9.14197e+06         2.58647e+08
    4.83              414807              606.58        -9.12574e+06         2.58229e+08
    4.85              413859             604.869        -9.10944e+06         2.57809e+08
    4.87              412907             603.156        -9.09308e+06         2.57387e+08
    4.89              411954             601.442        -9.07665e+06         2.56964e+08
    4.91              410998             599.726        -9.06016e+06         2.56539e+08
    4.93              410039             598.008        -9.04361e+06         2.56112e+08
    4.95              409078             596.289        -9.02699e+06         2.55684e+08
    4.97              408114             594.568        -9.01032e+06         2.55254e+08
    4.99              407148             592.846        -8.99357e+06         2.54823e+08
    5.01              406179             591.122        -8.97677e+06          2.5439e+08
    5.03              405208             589.397         -8.9599e+06         2.53955e+08
    5.05              404235              587.67        -8.94297e+06         2.53519e+08
    5.07              403259             585.942        -8.92598e+06         2.53081e+08
    5.09              402281             584.213        -8.90893e+06         2.52641e+08
    5.11              401300             582.482        -8.89181e+06           2.522e+08
    5.13              400317              580.75        -8.87464e+06         2.51758e+08
    5.15              399332             579.018         -8.8574e+06         2.51314e+08
    5.17              398345             577.283         -8.8401e+06         2.50868e+08
    5.19              397355             575.548        -8.82274e+06          2.5042e+08
    5.21              396363             573.812        -8.80532e+06         2.49972e+08
    5.23              395368             572.075        -8.78784e+06         2.49521e+08
    5.25              394372             570.337         -8.7703e+06         2.49069e+08
    5.27              393373             568.598         -8.7527e+06         2.48615e+08
    5.29              392372             566.858        -8.73504e+06          2.4816e+08
    5.31              391369             565.117        -8.71732e+06         2.47703e+08
    5.33              390364             563.375        -8.69954e+06         2.47245e+08
    5.35              389357             561.633         -8.6817e+06         2.46785e+08
    5.37              388348              559.89        -8.66381e+06         2.46324e+08
    5.39              387336             558.146        -8.64585e+06         2.45861e+08
    5.41              386323             556.402        -8.62784e+06         2.45397e+08
    5.43              385308             554.657        -8.60977e+06         2.44931e+08
    5.45              384290             552.911        -8.59164e+06         2.44464e+08
    5.47              383271             551.165        -8.57346e+06         2.43995e+08
    5.49              382249             549.419        -8.55521e+06         2.43524e+08
    5.51              381226             547.672        -8.53692e+06         2.43052e+08
    5.53              380201             545.925        -8.51856e+06         2.42579e+08
    5.55              379173             544.177        -8.50015e+06         2.42104e+08
    5.57              378144             542.429        -8.48168e+06         2.41628e+08
    5.59              377113             540.681        -8.46316e+06          2.4115e+08
    5.61              376081             538.933        -8.44458e+06         2.40671e+08
    5.63              375046             537.184        -8.42595e+06          2.4019e+08
    5.65              374010             535.435        -8.40726e+06         2.39708e+08
    5.67              372972             533.686        -8.38852e+06         2.39224e+08
    5.69              371932             531.937        -8.36972e+06         2.38739e+08
    5.71              370890             530.188        -8.35087e+06         2.38252e+08
    5.73              369847             528.439        -8.33197e+06         2.37764e+08
    5.75              368802              526.69        -8.31302e+06         2.37275e+08
    5.77              367756             524.941        -8.29401e+06         2.36784e+08
    5.79              366707             523.193        -8.27495e+06         2.36292e+08
    5.81              365658             521.444        -8.25583e+06         2.35798e+08
    5.83              364606             519.696        -8.23667e+06         2.35303e+08
    5.85              363553             517.947        -8.21745e+06         2.34807e+08
    5.87              362499             516.199        -8.19818e+06         2.34309e+08
    5.89              361443             514.452        -8.17886e+06          2.3381e+08
    5.91              360385             512.705         -8.1595e+06         2.33309e+08
    5.93              359326             510.958        -8.14008e+06         2.32807e+08
    5.95              358266             509.211        -8.12061e+06         2.32304e+08
    5.97              357204             507.465        -8.10109e+06           2.318e+08
    5.99              356141              505.72        -8.08152e+06         2.31294e+08
    6.01              355076             503.975        -8.06191e+06         2.30786e+08
    6.03              354010              502.23        -8.04225e+06         2.30278e+08
    6.05              352943             500.486        -8.02253e+06         2.29768e+08
    6.07              351874             498.743        -8.00278e+06         2.29257e+08
    6.09              350804                 497        -7.98297e+06         2.28744e+08
    6.11              349733             495.258        -7.96312e+06          2.2823e+08
    6.13              348661             493.517        -7.94322e+06         2.27715e+08
    6.15              347587             491.777        -7.92327e+06         2.27199e+08
    6.17              346513             490.037        -7.90328e+06         2.26681e+08
    6.19              345437             488.298        -7.88325e+06         2.26162e+08
    6.21              344360             486.561        -7.86317e+06         2.25642e+08
    6.23              343281             484.824        -7.84304e+06         2.25121e+08
    6.25              342202             483.088        -7.82287e+06         2.24598e+08
    6.27              341122             481.353        -7.80266e+06         2.24074e+08
    6.29              340041             479.619        -7.78241e+06         2.23549e+08
    6.31              338958             477.886        -7.76211e+06         2.23023e+08
    6.33              337875             476.154        -7.74177e+06         2.22495e+08
    6.35              336791             474.423        -7.72139e+06         2.21967e+08
    6.37              335706             472.693        -7.70097e+06         2.21437e+08
    6.39              334619             470.965         -7.6805e+06         2.20906e+08
    6.41              333532             469.238           -7.66e+06         2.20374e+08
    6.43              332445             467.511        -7.63945e+06          2.1984e+08
    6.45              331356             465.787        -7.61887e+06         2.19306e+08
    6.47              330266             464.063        -7.59824e+06          2.1877e+08
    6.49              329176             462.341        -7.57758e+06         2.18233e+08
    6.51              328085             460.621        -7.55688e+06         2.17695e+08
    6.53              326993             458.901        -7.53614e+06         2.17156e+08
    6.55              325901             457.183        -7.51536e+06         2.16616e+08
    6.57              324808             455.467        -7.49455e+06         2.16075e+08
    6.59              323714             453.752         -7.4737e+06         2.15533e+08
    6.61              322620             452.039        -7.45281e+06          2.1499e+08
    6.63              321525             450.327        -7.43189e+06         2.14445e+08
    6.65              320429             448.617        -7.41094e+06           2.139e+08
    6.67              319333             446.908        -7.38994e+06         2.13353e+08
    6.69              318236             445.201        -7.36892e+06         2.12806e+08
    6.71              317139             443.496        -7.34786e+06         2.12258e+08
    6.73              316042             441.792        -7.32677e+06         2.11708e+08
    6.75              314943             440.091        -7.30564e+06         2.11158e+08
    6.77              313845             438.391        -7.28449e+06         2.10606e+08
    6.79              312746             436.693         -7.2633e+06         2.10054e+08
    6.81              311647             434.996        -7.24208e+06           2.095e+08
    6.83              310547             433.302        -7.22082e+06         2.08946e+08
    6.85              309447             431.609        -7.19954e+06         2.08391e+08
    6.87              308347             429.919        -7.17823e+06         2.07834e+08
    6.89              307247              428.23        -7.15689e+06         2.07277e+08
    6.91              306146             426.543        -7.13552e+06         2.06719e+08
    6.93              305045             424.859        -7.11412e+06          2.0616e+08
    6.95              303944             423.176         -7.0927e+06           2.056e+08
    6.97              302843             421.495        -7.07125e+06          2.0504e+08
    6.99              301742             419.817        -7.04977e+06         2.04478e+08
    7.01              300640             418.141        -7.02826e+06         2.03916e+08
    7.03              299539             416.467        -7.00673e+06         2.03353e+08
    7.05              298437             414.795        -6.98518e+06         2.02789e+08
    7.07              297336             413.125         -6.9636e+06         2.02224e+08
    7.09              296234             411.457        -6.94199e+06         2.01658e+08
    7.11              295132             409.792        -6.92036e+06         2.01092e+08
    7.13              294031             408.129        -6.89871e+06         2.00524e+08
    7.15              292930             406.469        -6.87704e+06         1.99956e+08
    7.17              291828              404.81        -6.85534e+06         1.99388e+08
    7.19              290727             403.154        -6.83363e+06         1.98818e+08
    7.21              289626             401.501        -6.81189e+06         1.98248e+08
    7.23              288525              399.85        -6.79013e+06         1.97677e+08
    7.25              287425             398.201        -6.76835e+06         1.97105e+08
    7.27              286325             396.555        -6.74656e+06         1.96533e+08
    7.29              285225             394.912        -6.72474e+06          1.9596e+08
    7.31              284125             393.271        -6.70291e+06         1.95386e+08
    7.33              283026             391.632        -6.68106e+06         1.94812e+08
    7.35              281927             389.997        -6.65919e+06         1.94237e+08
    7.37              280828             388.363         -6.6373e+06         1.93662e+08
    7.39              279730             386.733         -6.6154e+06         1.93086e+08
    7.41              278632             385.105        -6.59349e+06         1.92509e+08
    7.43              277535              383.48        -6.57156e+06         1.91931e+08
    7.45              276438             381.857        -6.54961e+06         1.91354e+08
    7.47              275342             380.238        -6.52765e+06         1.90775e+08
    7.49              274246             378.621        -6.50568e+06         1.90196e+08
    7.51              273151             377.006         -6.4837e+06         1.89616e+08
    7.53              272056             375.395        -6.46171e+06         1.89036e+08
    7.55              270962             373.787         -6.4397e+06         1.88456e+08
    7.57              269869             372.181        -6.41768e+06         1.87875e+08
    7.59              268777             370.578        -6.39566e+06         1.87293e+08
    7.61              267685             368.979        -6.37362e+06         1.86711e+08
    7.63              266594             367.382        -6.35157e+06         1.86129e+08
    7.65              265503             365.788        -6.32952e+06         1.85546e+08
    7.67              264414             364.197        -6.30746e+06         1.84963e+08
    7.69              263325             362.609        -6.28539e+06         1.84379e+08
    7.71              262237             361.025        -6.26331e+06         1.83795e+08
    7.73              261150             359.443        -6.24123e+06          1.8321e+08
    7.75              260064             357.864        -6.21915e+06         1.82626e+08
    7.77              258979             356.289        -6.19706e+06          1.8204e+08
    7.79              257894             354.717        -6.17496e+06         1.81455e+08
    7.81              256811             353.147        -6.15286e+06         1.80869e+08
    7.83              255729             351.581        -6.13076e+06         1.80283e+08
    7.85              254648             350.019        -6.10866e+06         1.79697e+08
    7.87              253568             348.459        -6.08655e+06          1.7911e+08
    7.89              252489             346.903        -6.06444e+06         1.78523e+08
    7.91              251411              345.35        -6.04233e+06         1.77936e+08
    7.93              250334               343.8        -6.02023e+06         1.77348e+08
    7.95              249258             342.254        -5.99812e+06         1.76761e+08
    7.97              248184             340.711        -5.97601e+06         1.76173e+08
    7.99              247111             339.171        -5.95391e+06         1.75585e+08
    8.01              246039             337.635        -5.93181e+06         1.74997e+08
    8.03              244968             336.102        -5.90971e+06         1.74408e+08
    8.05              243899             334.572        -5.88762e+06          1.7382e+08
    8.07              242830             333.046        -5.86552e+06         1.73231e+08
    8.09              241764             331.524        -5.84344e+06         1.72642e+08
    8.11              240698             330.005        -5.82136e+06         1.72053e+08
    8.13              239635             328.489        -5.79928e+06         1.71464e+08
    8.15              238572             326.977        -5.77722e+06         1.70875e+08
    8.17              237511             325.469        -5.75516e+06         1.70286e+08
    8.19              236451             323.964        -5.73311e+06         1.69697e+08
    8.21              235393             322.463        -5.71106e+06         1.69108e+08
    8.23              234337             320.966        -5.68903e+06         1.68519e+08
    8.25              233282             319.472          -5.667e+06          1.6793e+08
    8.27              232229             317.981        -5.64499e+06         1.67341e+08
    8.29              231177             316.495        -5.62299e+06         1.66752e+08
    8.31              230127             315.012        -5.60099e+06         1.66163e+08
    8.33              229078             313.533        -5.57901e+06         1.65574e+08
    8.35              228032             312.057        -5.55705e+06         1.64985e+08
    8.37              226987             310.586        -5.53509e+06         1.64396e+08
    8.39              225943             309.118        -5.51316e+06         1.63808e+08
    8.41              224902             307.654        -5.49123e+06         1.63219e+08
    8.43              223862             306.194        -5.46932e+06         1.62631e+08
    8.45              222824             304.737        -5.44743e+06         1.62043e+08
    8.47              221788             303.285        -5.42555e+06         1.61455e+08
    8.49              220754             301.836        -5.40369e+06         1.60867e+08
    8.51              219722             300.392        -5.38185e+06          1.6028e+08
    8.53              218691             298.951        -5.36003e+06         1.59692e+08
    8.55              217663             297.514        -5.33822e+06         1.59105e+08
    8.57              216636             296.081        -5.31644e+06         1.58518e+08
    8.59              215612             294.652        -5.29467e+06         1.57932e+08
    8.61              214589             293.228        -5.27293e+06         1.57345e+08
    8.63              213569             291.807         -5.2512e+06          1.5676e+08
    8.65              212550              290.39         -5.2295e+06         1.56174e+08
    8.67              211534             288.977        -5.20782e+06         1.55589e+08
    8.69              210520             287.568        -5.18617e+06         1.55004e+08
    8.71              209508             286.164        -5.16454e+06         1.54419e+08
    8.73              208498             284.763        -5.14293e+06         1.53835e+08
    8.75              207490             283.367        -5.12135e+06         1.53251e+08
    8.77              206485             281.975        -5.09979e+06         1.52668e+08
    8.79              205481             280.586        -5.07826e+06         1.52085e+08
    8.81              204480             279.203        -5.05675e+06         1.51502e+08
    8.83              203481             277.823        -5.03528e+06          1.5092e+08
    8.85              202485             276.447        -5.01383e+06         1.50338e+08
    8.87              201491             275.076        -4.99241e+06         1.49757e+08
    8.89              200499             273.709        -4.97101e+06         1.49177e+08
    8.91              199509             272.346        -4.94965e+06         1.48597e+08
    8.93              198522             270.988        -4.92832e+06         1.48017e+08
    8.95              197537             269.634        -4.90702e+06         1.47438e+08
    8.97              196555             268.284        -4.88575e+06          1.4686e+08
    8.99              195575             266.938        -4.86451e+06         1.46282e+08
    9.01              194598             265.597        -4.84331e+06         1.45705e+08
    9.03              193623              264.26        -4.82214e+06         1.45128e+08
    9.05              192651             262.928          -4.801e+06         1.44552e+08
    9.07              191681               261.6        -4.77989e+06         1.43977e+08
    9.09              190714             260.276        -4.75882e+06         1.43402e+08
    9.11              189749             258.957        -4.73779e+06         1.42828e+08
    9.13              188787             257.642        -4.71679e+06         1.42255e+08
    9.15              187827             256.332        -4.69583e+06         1.41682e+08
    9.17              186871             255.026        -4.67491e+06         1.41111e+08
    9.19              185916             253.725        -4.65402e+06         1.40539e+08
    9.21              184965             252.428        -4.63317e+06         1.39969e+08
    9.23              184016             251.135        -4.61236e+06         1.39399e+08
    9.25              183070             249.848        -4.59159e+06         1.38831e+08
    9.27              182127             248.564        -4.57086e+06         1.38263e+08
    9.29              181186             247.286        -4.55017e+06         1.37696e+08
    9.31              180248             246.011        -4.52952e+06         1.37129e+08
    9.33              179313             244.742        -4.50891e+06         1.36564e+08
    9.35              178381             243.477        -4.48835e+06         1.35999e+08
    9.37              177452             242.217        -4.46782e+06         1.35435e+08
    9.39              176525             240.961        -4.44734e+06         1.34872e+08
    9.41              175602              239.71        -4.42691e+06          1.3431e+08
    9.43              174681             238.464        -4.40651e+06         1.33749e+08
    9.45              173763             237.222        -4.38617e+06         1.33189e+08
    9.47              172848             235.985        -4.36586e+06          1.3263e+08
    9.49              171936             234.753         -4.3456e+06         1.32072e+08
    9.51              171027             233.525        -4.32539e+06         1.31514e+08
    9.53              170121             232.302        -4.30523e+06         1.30958e+08
    9.55              169218             231.084        -4.28511e+06         1.30403e+08
    9.57              168318             229.871        -4.26504e+06         1.29849e+08
    9.59              167421             228.662        -4.24502e+06         1.29296e+08
    9.61              166528             227.458        -4.22505e+06         1.28743e+08
    9.63              165637             226.259        -4.20513e+06         1.28192e+08
    9.65              164749             225.065        -4.18525e+06         1.27642e+08
    9.67              163864             223.876        -4.16543e+06         1.27093e+08
    9.69              162983             222.691        -4.14565e+06         1.26546e+08
    9.71              162104             221.512        -4.12593e+06         1.25999e+08
    9.73              161229             220.337        -4.10626e+06         1.25453e+08
    9.75              160357             219.167        -4.08664e+06         1.24909e+08
    9.77              159488             218.002        -4.06708e+06         1.24366e+08
    9.79              158623             216.841        -4.04757e+06         1.23823e+08
    9.81              157760             215.686        -4.02811e+06         1.23283e+08
    9.83              156901             214.536         -4.0087e+06         1.22743e+08
    9.85              156045              213.39        -3.98935e+06         1.22204e+08
    9.87              155192              212.25        -3.97005e+06         1.21667e+08
    9.89              154342             211.114        -3.95081e+06         1.21131e+08
    9.91              153496             209.983        -3.93163e+06         1.20596e+08
    9.93              152653             208.858         -3.9125e+06         1.20063e+08
    9.95              151814             207.737        -3.89342e+06         1.19531e+08
    9.97              150977             206.621        -3.87441e+06            1.19e+08
    9.99              150144             205.511        -3.85545e+06          1.1847e+08
   10.01              149315             204.405        -3.83655e+06         1.17942e+08
   10.03              148488             203.304        -3.81771e+06         1.17415e+08
   10.05              147665             202.209        -3.79892e+06         1.16889e+08
   10.07              146846             201.118         -3.7802e+06         1.16365e+08
   10.09              146030             200.032        -3.76153e+06         1.15842e+08
   10.11              145217             198.952        -3.74293e+06          1.1532e+08
   10.13              144408             197.876        -3.72438e+06           1.148e+08
   10.15              143602             196.806         -3.7059e+06         1.14281e+08
   10.17              142800             195.741        -3.68748e+06         1.13764e+08
   10.19              142001             194.681        -3.66911e+06         1.13248e+08
   10.21              141205             193.626        -3.65081e+06         1.12733e+08
   10.23              140413             192.576        -3.63258e+06          1.1222e+08
   10.25              139624             191.531         -3.6144e+06         1.11709e+08
   10.27              138839             190.491        -3.59629e+06         1.11199e+08
   10.29              138058             189.457        -3.57824e+06          1.1069e+08
   10.31              137280             188.427        -3.56025e+06         1.10183e+08
   10.33              136505             187.403        -3.54233e+06         1.09677e+08
   10.35              135734             186.384        -3.52447e+06         1.09173e+08
   10.37              134967              185.37        -3.50668e+06          1.0867e+08
   10.39              134203             184.361        -3.48895e+06         1.08169e+08
   10.41              133443             183.357        -3.47129e+06          1.0767e+08
   10.43              132686             182.359        -3.45369e+06         1.07172e+08
   10.45              131933             181.366        -3.43616e+06         1.06675e+08
   10.47              131183             180.378         -3.4187e+06         1.06181e+08
   10.49              130437             179.395         -3.4013e+06         1.05687e+08
   10.51              129695             178.417        -3.38397e+06         1.05196e+08
   10.53              128956             177.445         -3.3667e+06         1.04706e+08
   10.55              128221             176.478        -3.34951e+06         1.04217e+08
   10.57              127489             175.516        -3.33238e+06          1.0373e+08
   10.59              126761              174.56        -3.31532e+06         1.03245e+08
   10.61              126037             173.608        -3.29832e+06         1.02762e+08
   10.63              125316             172.662         -3.2814e+06          1.0228e+08
   10.65              124599             171.721        -3.26454e+06           1.018e+08
   10.67              123886             170.786        -3.24776e+06         1.01321e+08
   10.69              123176             169.855        -3.23104e+06         1.00844e+08
   10.71              122470              168.93        -3.21439e+06         1.00369e+08
   10.73              121768              168.01        -3.19782e+06         9.98957e+07
   10.75              121069             167.096        -3.18131e+06          9.9424e+07
   10.77              120374             166.187        -3.16487e+06          9.8954e+07
   10.79              119683             165.283        -3.14851e+06         9.84857e+07
   10.81              118995             164.384        -3.13221e+06         9.80191e+07
   10.83              118311             163.491        -3.11599e+06         9.75543e+07
   10.85              117631             162.603        -3.09984e+06         9.70912e+07
   10.87              116955              161.72        -3.08375e+06         9.66299e+07
   10.89              116282             160.843        -3.06775e+06         9.61703e+07
   10.91              115613             159.971        -3.05181e+06         9.57126e+07
   10.93              114947             159.104        -3.03594e+06         9.52566e+07
   10.95              114285             158.242        -3.02015e+06         9.48023e+07
   10.97              113627             157.386        -3.00443e+06         9.43499e+07
   10.99              112973             156.536        -2.98878e+06         9.38993e+07
   11.01              112322              155.69         -2.9732e+06         9.34505e+07
   11.03              111676              154.85         -2.9577e+06         9.30035e+07
   11.05              111032             154.015        -2.94227e+06         9.25583e+07
   11.07              110393             153.186        -2.92692e+06         9.21149e+07
   11.09              109757             152.362        -2.91164e+06         9.16734e+07
   11.11              109125             151.543        -2.89643e+06         9.12337e+07
   11.13              108497             150.729        -2.88129e+06         9.07959e+07
   11.15              107872             149.921        -2.86623e+06         9.03599e+07
   11.17              107252             149.118        -2.85125e+06         8.99258e+07
   11.19              106634             148.321        -2.83633e+06         8.94936e+07
   11.21              106021             147.529         -2.8215e+06         8.90632e+07
   11.23              105411             146.742        -2.80673e+06         8.86346e+07
   11.25              104805             145.961        -2.79204e+06          8.8208e+07
   11.27              104203             145.185        -2.77743e+06         8.77833e+07
   11.29              103605             144.414        -2.76289e+06         8.73604e+07
   11.31              103010             143.648        -2.74843e+06         8.69394e+07
   11.33              102419             142.888        -2.73404e+06         8.65203e+07
   11.35              101832             142.134        -2.71972e+06         8.61032e+07
   11.37              101248             141.384        -2.70548e+06         8.56879e+07
   11.39              100668              140.64        -2.69132e+06         8.52746e+07
   11.41              100092             139.901        -2.67723e+06         8.48631e+07
   11.43             99519.4             139.168        -2.66322e+06         8.44536e+07
   11.45             98950.6              138.44        -2.64928e+06         8.40461e+07
   11.47             98385.5             137.717        -2.63542e+06         8.36404e+07
   11.49             97824.1                 137        -2.62163e+06         8.32367e+07
   11.51             97266.4             136.288        -2.60792e+06         8.28349e+07
   11.53             96712.4             135.581        -2.59429e+06          8.2435e+07
   11.55             96162.1             134.879        -2.58073e+06         8.20371e+07
   11.57             95615.5             134.183        -2.56724e+06         8.16412e+07
   11.59             95072.5             133.492        -2.55384e+06         8.12471e+07
   11.61             94533.3             132.807         -2.5405e+06         8.08551e+07
   11.63             93997.7             132.127        -2.52725e+06          8.0465e+07
   11.65             93465.7             131.452        -2.51407e+06         8.00768e+07
   11.67             92937.5             130.782        -2.50096e+06         7.96906e+07
   11.69             92412.8             130.117        -2.48793e+06         7.93064e+07
   11.71             91891.9             129.458        -2.47498e+06         7.89241e+07
   11.73             91374.5             128.804         -2.4621e+06         7.85438e+07
   11.75             90860.8             128.156         -2.4493e+06         7.81654e+07
   11.77             90350.8             127.513        -2.43658e+06         7.77891e+07
   11.79             89844.4             126.874        -2.42393e+06         7.74147e+07
   11.81             89341.6             126.242        -2.41135e+06         7.70422e+07
   11.83             88842.4             125.614        -2.39885e+06         7.66718e+07
   11.85             88346.8             124.992        -2.38643e+06         7.63033e+07
   11.87             87854.8             124.375        -2.37408e+06         7.59368e+07
   11.89             87366.4             123.763        -2.36181e+06         7.55722e+07
   11.91             86881.6             123.156        -2.34962e+06         7.52097e+07
   11.93             86400.4             122.554         -2.3375e+06         7.48491e+07
   11.95             85922.7             121.958        -2.32545e+06         7.44905e+07
   11.97             85448.6             121.367        -2.31348e+06         7.41338e+07
   11.99             84978.1             120.781        -2.30159e+06         7.37792e+07
   12.01             84511.1               120.2        -2.28977e+06         7.34265e+07
   12.03             84047.6             119.625        -2.27802e+06         7.30758e+07
   12.05             83587.7             119.054        -2.26636e+06         7.27271e+07
   12.07             83131.3             118.489        -2.25476e+06         7.23804e+07
   12.09             82678.4             117.929        -2.24324e+06         7.20356e+07
   12.11             82229.1             117.373         -2.2318e+06         7.16928e+07
   12.13             81783.2             116.823        -2.22043e+06          7.1352e+07
   12.15             81340.8             116.279        -2.20913e+06         7.10132e+07
   12.17             80901.9             115.739        -2.19791e+06         7.06763e+07
   12.19             80466.4             115.204        -2.18677e+06         7.03414e+07
   12.21             80034.4             114.674        -2.17569e+06         7.00085e+07
   12.23             79605.8              114.15         -2.1647e+06         6.96776e+07
   12.25             79180.7              113.63        -2.15377e+06         6.93486e+07
   12.27               78759             113.116        -2.14292e+06         6.90216e+07
   12.29             78340.8             112.606        -2.13215e+06         6.86966e+07
   12.31             77925.9             112.101        -2.12144e+06         6.83735e+07
   12.33             77514.4             111.602        -2.11081e+06         6.80524e+07
   12.35             77106.3             111.107        -2.10026e+06         6.77333e+07
   12.37             76701.6             110.618        -2.08977e+06         6.74161e+07
   12.39             76300.2             110.133        -2.07936e+06         6.71008e+07
   12.41             75902.2             109.653        -2.06903e+06         6.67876e+07
   12.43             75507.6             109.178        -2.05876e+06         6.64762e+07
   12.45             75116.2             108.708        -2.04857e+06         6.61669e+07
   12.47             74728.2             108.243        -2.03845e+06         6.58594e+07
   12.49             74343.5             107.783         -2.0284e+06         6.55539e+07
   12.51               73962             107.327        -2.01843e+06         6.52504e+07
   12.53             73583.9             106.877        -2.00852e+06         6.49488e+07
   12.55               73209             106.431        -1.99869e+06         6.46491e+07
   12.57             72837.4              105.99        -1.98893e+06         6.43514e+07
   12.59               72469             105.554        -1.97924e+06         6.40555e+07
   12.61             72103.8             105.123        -1.96962e+06         6.37616e+07
   12.63             71741.9             104.696        -1.96007e+06         6.34697e+07
   12.65             71383.1             104.274         -1.9506e+06         6.31796e+07
   12.67             71027.6             103.857        -1.94119e+06         6.28915e+07
   12.69             70675.2             103.444        -1.93185e+06         6.26052e+07
   12.71               70326             103.036        -1.92259e+06         6.23209e+07
   12.73             69979.9             102.633        -1.91339e+06         6.20385e+07
   12.75               69637             102.234        -1.90426e+06         6.17579e+07
   12.77             69297.2              101.84         -1.8952e+06         6.14793e+07
   12.79             68960.5             101.451        -1.88621e+06         6.12025e+07
   12.81             68626.9             101.066        -1.87729e+06         6.09277e+07
   12.83             68296.4             100.686        -1.86844e+06         6.06547e+07
   12.85               67969              100.31        -1.85966e+06         6.03836e+07
   12.87             67644.6              99.939        -1.85094e+06         6.01143e+07
   12.89             67323.2             99.5722        -1.84229e+06         5.98469e+07
   12.91             67004.9             99.2099        -1.83371e+06         5.95814e+07
   12.93             66689.6             98.8521         -1.8252e+06         5.93177e+07
   12.95             66377.2             98.4986        -1.81676e+06         5.90559e+07
   12.97             66067.9             98.1496        -1.80838e+06         5.87959e+07
   12.99             65761.5             97.8049        -1.80006e+06         5.85378e+07
   13.01             65458.1             97.4646        -1.79182e+06         5.82815e+07
   13.03             65157.6             97.1286        -1.78364e+06          5.8027e+07
   13.05               64860              96.797        -1.77552e+06         5.77743e+07
   13.07             64565.3             96.4696        -1.76748e+06         5.75235e+07
   13.09             64273.6             96.1464        -1.75949e+06         5.72744e+07
   13.11             63984.7             95.8275        -1.75157e+06         5.70272e+07
   13.13             63698.6             95.5128        -1.74372e+06         5.67817e+07
   13.15             63415.4             95.2023        -1.73593e+06         5.65381e+07
   13.17             63135.1             94.8959        -1.72821e+06         5.62962e+07
   13.19             62857.5             94.5937        -1.72055e+06         5.60561e+07
   13.21             62582.7             94.2955        -1.71295e+06         5.58178e+07
   13.23             62310.8             94.0015        -1.70541e+06         5.55813e+07
   13.25             62041.6             93.7115        -1.69794e+06         5.53465e+07
   13.27             61775.1             93.4255        -1.69053e+06         5.51135e+07
   13.29             61511.4             93.1436        -1.68319e+06         5.48822e+07
   13.31             61250.4             92.8656         -1.6759e+06         5.46526e+07
   13.33               60992             92.5915        -1.66868e+06         5.44248e+07
   13.35             60736.4             92.3214        -1.66152e+06         5.41987e+07
   13.37             60483.5             92.0552        -1.65442e+06         5.39743e+07
   13.39             60233.2             91.7928        -1.64738e+06         5.37517e+07
   13.41             59985.5             91.5343         -1.6404e+06         5.35307e+07
   13.43             59740.5             91.2796        -1.63348e+06         5.33115e+07
   13.45               59498             91.0286        -1.62662e+06         5.30939e+07
   13.47             59258.2             90.7815        -1.61983e+06          5.2878e+07
   13.49             59020.9              90.538        -1.61309e+06         5.26638e+07
   13.51             58786.2             90.2983        -1.60641e+06         5.24513e+07
   13.53               58554             90.0622        -1.59978e+06         5.22404e+07
   13.55             58324.3             89.8297        -1.59322e+06         5.20311e+07
   13.57             58097.1             89.6009        -1.58672e+06         5.18236e+07
   13.59             57872.5             89.3756        -1.58027e+06         5.16176e+07
   13.61             57650.3             89.1539        -1.57388e+06         5.14133e+07
   13.63             57430.5             88.9358        -1.56754e+06         5.12106e+07
   13.65             57213.2             88.7211        -1.56127e+06         5.10095e+07
   13.67             56998.3             88.5099        -1.55505e+06         5.08101e+07
   13.69             56785.8             88.3021        -1.54888e+06         5.06122e+07
   13.71             56575.7             88.0977        -1.54277e+06         5.04159e+07
   13.73               56368             87.8967        -1.53672e+06         5.02212e+07
   13.75             56162.6              87.699        -1.53072e+06         5.00281e+07
   13.77             55959.5             87.5047        -1.52478e+06         4.98365e+07
   13.79             55758.8             87.3136        -1.51889e+06         4.96465e+07
   13.81             55560.3             87.1258        -1.51305e+06         4.94581e+07
   13.83             55364.2             86.9412        -1.50727e+06         4.92712e+07
   13.85             55170.3             86.7598        -1.50154e+06         4.90858e+07
   13.87             54978.7             86.5815        -1.49587e+06          4.8902e+07
   13.89             54789.3             86.4064        -1.49025e+06         4.87196e+07
   13.91             54602.1             86.2344        -1.48468e+06         4.85388e+07
   13.93             54417.1             86.0655        -1.47916e+06         4.83595e+07
   13.95             54234.3             85.8995        -1.47369e+06         4.81817e+07
   13.97             54053.7             85.7366        -1.46828e+06         4.80053e+07
   13.99             53875.2             85.5767        -1.46291e+06         4.78305e+07
   14.01             53698.8             85.4197         -1.4576e+06         4.76571e+07
   14.03             53524.6             85.2657        -1.45234e+06         4.74851e+07
   14.05             53352.4             85.1145        -1.44712e+06         4.73146e+07
   14.07             53182.3             84.9661        -1.44196e+06         4.71456e+07
   14.09             53014.3             84.8206        -1.43684e+06         4.69779e+07
   14.11             52848.3             84.6779        -1.43178e+06         4.68118e+07
   14.13             52684.4             84.5379        -1.42676e+06          4.6647e+07
   14.15             52522.4             84.4007        -1.42179e+06         4.64836e+07
   14.17             52362.5             84.2661        -1.41687e+06         4.63216e+07
   14.19             52204.5             84.1342          -1.412e+06          4.6161e+07
   14.21             52048.5              84.005        -1.40717e+06         4.60018e+07
   14.23             51894.4             83.8783        -1.40239e+06          4.5844e+07
   14.25             51742.3             83.7542        -1.39765e+06         4.56875e+07
   14.27               51592             83.6327        -1.39297e+06         4.55323e+07
   14.29             51443.7             83.5136        -1.38832e+06         4.53786e+07
   14.31             51297.2             83.3971        -1.38373e+06         4.52261e+07
   14.33             51152.6             83.2829        -1.37918e+06          4.5075e+07
   14.35             51009.8             83.1712        -1.37467e+06         4.49252e+07
   14.37             50868.8             83.0619        -1.37021e+06         4.47767e+07
   14.39             50729.7              82.955        -1.36579e+06         4.46295e+07
   14.41             50592.3             82.8503        -1.36141e+06         4.44836e+07
   14.43             50456.7              82.748        -1.35708e+06         4.43389e+07
   14.45             50322.8             82.6479        -1.35279e+06         4.41956e+07
   14.47             50190.7               82.55        -1.34855e+06         4.40535e+07
   14.49             50060.3             82.4544        -1.34434e+06         4.39127e+07
   14.51             49931.7             82.3609        -1.34018e+06         4.37731e+07
   14.53             49804.7             82.2696        -1.33606e+06         4.36347e+07
   14.55             49679.3             82.1803        -1.33198e+06         4.34976e+07
   14.57             49555.7             82.0932        -1.32794e+06         4.33617e+07
   14.59             49433.6             82.0081        -1.32394e+06          4.3227e+07
   14.61             49313.2              81.925        -1.31998e+06         4.30935e+07
   14.63             49194.4             81.8439        -1.31607e+06         4.29612e+07
   14.65             49077.2             81.7648        -1.31219e+06           4.283e+07
   14.67             48961.5             81.6876        -1.30835e+06         4.27001e+07
   14.69             48847.4             81.6123        -1.30455e+06         4.25713e+07
   14.71             48734.8             81.5389        -1.30078e+06         4.24437e+07
   14.73             48623.8             81.4673        -1.29706e+06         4.23172e+07
   14.75             48514.2             81.3976        -1.29337e+06         4.21918e+07
   14.77             48406.2             81.3296        -1.28972e+06         4.20676e+07
   14.79             48299.6             81.2634        -1.28611e+06         4.19445e+07
   14.81             48194.5             81.1989        -1.28253e+06         4.18225e+07
   14.83             48090.8             81.1362          -1.279e+06         4.17016e+07
   14.85             47988.6             81.0751        -1.27549e+06         4.15818e+07
   14.87             47887.7             81.0156        -1.27202e+06         4.14631e+07
   14.89             47788.3             80.9578        -1.26859e+06         4.13455e+07
   14.91             47690.2             80.9015        -1.26519e+06         4.12289e+07
   14.93             47593.5             80.8468        -1.26183e+06         4.11134e+07
   14.95             47498.2             80.7937         -1.2585e+06         4.09989e+07
   14.97             47404.1              80.742        -1.25521e+06         4.08855e+07
   14.99             47311.4             80.6919        -1.25195e+06         4.07731e+07
   15.01               47220             80.6431        -1.24872e+06         4.06618e+07
   15.03             47129.9             80.5959        -1.24553e+06         4.05514e+07
   15.05               47041               80.55        -1.24237e+06         4.04421e+07
   15.07             46953.4             80.5055        -1.23924e+06         4.03337e+07
   15.09               46867             80.4623        -1.23614e+06         4.02263e+07
   15.11             46781.9             80.4205        -1.23308e+06         4.01199e+07
   15.13             46697.9             80.3799        -1.23004e+06         4.00145e+07
   15.15             46615.2             80.3407        -1.22704e+06         3.99101e+07
   15.17             46533.6             80.3027        -1.22407e+06         3.98066e+07
   15.19             46453.2             80.2659        -1.22113e+06          3.9704e+07
   15.21             46373.9             80.2302        -1.21822e+06         3.96024e+07
   15.23             46295.8             80.1958        -1.21534e+06         3.95017e+07
   15.25             46218.8             80.1625        -1.21249e+06         3.94019e+07
   15.27             46142.9             80.1303        -1.20966e+06          3.9303e+07
   15.29             46068.1             80.0993        -1.20687e+06         3.92051e+07
   15.31             45994.3             80.0693        -1.20411e+06          3.9108e+07
   15.33             45921.6             80.0403        -1.20137e+06         3.90118e+07
   15.35               45850             80.0124        -1.19866e+06         3.89165e+07
   15.37             45779.4             79.9855        -1.19598e+06         3.88221e+07
   15.39             45709.8             79.9595        -1.19333e+06         3.87285e+07
   15.41             45641.2             79.9345         -1.1907e+06         3.86358e+07
   15.43             45573.6             79.9104         -1.1881e+06         3.85439e+07
   15.45               45507             79.8873        -1.18553e+06         3.84529e+07
   15.47             45441.4              79.865        -1.18298e+06         3.83626e+07
   15.49             45376.7             79.8436        -1.18046e+06         3.82732e+07
   15.51             45312.9              79.823        -1.17797e+06         3.81847e+07
   15.53             45250.1             79.8033         -1.1755e+06         3.80969e+07
   15.55             45188.1             79.7844        -1.17305e+06         3.80099e+07
   15.57             45127.1             79.7662        -1.17063e+06         3.79237e+07
   15.59             45066.9             79.7488        -1.16824e+06         3.78383e+07
   15.61             45007.6             79.7321        -1.16587e+06         3.77536e+07
   15.63             44949.2             79.7161        -1.16352e+06         3.76698e+07
   15.65             44891.6             79.7008         -1.1612e+06         3.75866e+07
   15.67             44834.8             79.6862         -1.1589e+06         3.75043e+07
   15.69             44778.9             79.6723        -1.15662e+06         3.74226e+07
   15.71             44723.7             79.6589        -1.15437e+06         3.73417e+07
   15.73             44669.3             79.6462        -1.15214e+06         3.72616e+07
   15.75             44615.8             79.6341        -1.14993e+06         3.71821e+07
   15.77             44562.9             79.6225        -1.14774e+06         3.71034e+07
   15.79             44510.9             79.6115        -1.14557e+06         3.70253e+07
   15.81             44459.6             79.6011        -1.14343e+06          3.6948e+07
   15.83               44409             79.5911        -1.14131e+06         3.68714e+07
   15.85             44359.1             79.5816         -1.1392e+06         3.67954e+07
   15.87             44309.9             79.5726        -1.13712e+06         3.67201e+07
   15.89             44261.4             79.5641        -1.13506e+06         3.66455e+07
   15.91             44213.6              79.556        -1.13302e+06         3.65715e+07
   15.93             44166.5             79.5483          -1.131e+06         3.64982e+07
   15.95               44120             79.5411          -1.129e+06         3.64255e+07
   15.97             44074.2             79.5342        -1.12702e+06         3.63535e+07
   15.99               44029             79.5276        -1.12506e+06         3.62821e+07
   16.01             43984.4             79.5215        -1.12312e+06         3.62113e+07
   16.03             43940.4             79.5156        -1.12119e+06         3.61412e+07
   16.05               43897             79.5101        -1.11928e+06         3.60717e+07
   16.07             43854.3             79.5048         -1.1174e+06         3.60027e+07
   16.09             43812.1             79.4999        -1.11553e+06         3.59344e+07
   16.11             43770.4             79.4952        -1.11368e+06         3.58667e+07
   16.13             43729.4             79.4908        -1.11184e+06         3.57995e+07
   16.15             43688.8             79.4865        -1.11002e+06         3.57329e+07
   16.17             43648.8             79.4825        -1.10822e+06         3.56669e+07
   16.19             43609.3             79.4788        -1.10644e+06         3.56015e+07
   16.21             43570.4             79.4751        -1.10468e+06         3.55366e+07
   16.23             43531.9             79.4717        -1.10293e+06         3.54723e+07
   16.25               43494             79.4684        -1.10119e+06         3.54085e+07
   16.27             43456.5             79.4653        -1.09947e+06         3.53452e+07
   16.29             43419.5             79.4622        -1.09777e+06         3.52825e+07
   16.31             43382.9             79.4593        -1.09608e+06         3.52204e+07
   16.33             43346.8             79.4565        -1.09441e+06         3.51587e+07
   16.35             43311.2             79.4537        -1.09276e+06         3.50976e+07
   16.37             43275.9             79.4511        -1.09112e+06         3.50369e+07
   16.39             43241.1             79.4484        -1.08949e+06         3.49768e+07
   16.41             43206.7             79.4458        -1.08788e+06         3.49172e+07
   16.43             43172.8             79.4433        -1.08628e+06          3.4858e+07
   16.45             43139.2             79.4407         -1.0847e+06         3.47994e+07
   16.47               43106             79.4381        -1.08313e+06         3.47412e+07
   16.49             43073.2             79.4355        -1.08157e+06         3.46835e+07
   16.51             43040.7             79.4329        -1.08003e+06         3.46263e+07
   16.53             43008.6             79.4303         -1.0785e+06         3.45695e+07
   16.55             42976.9             79.4275        -1.07699e+06         3.45132e+07
   16.57             42945.5             79.4248        -1.07548e+06         3.44574e+07
   16.59             42914.4             79.4219        -1.07399e+06          3.4402e+07
   16.61             42883.7             79.4189        -1.07252e+06          3.4347e+07
   16.63             42853.2             79.4159        -1.07105e+06         3.42925e+07
   16.65             42823.1             79.4127         -1.0696e+06         3.42384e+07
   16.67             42793.3             79.4093        -1.06816e+06         3.41848e+07
   16.69             42763.7             79.4059        -1.06673e+06         3.41315e+07
   16.71             42734.5             79.4023        -1.06531e+06         3.40787e+07
   16.73             42705.5             79.3985        -1.06391e+06         3.40263e+07
   16.75             42676.8             79.3945        -1.06251e+06         3.39743e+07
   16.77             42648.4             79.3904        -1.06113e+06         3.39227e+07
   16.79             42620.2              79.386        -1.05976e+06         3.38715e+07
   16.81             42592.2             79.3815         -1.0584e+06         3.38207e+07
   16.83             42564.5             79.3767        -1.05705e+06         3.37702e+07
   16.85               42537             79.3717        -1.05571e+06         3.37202e+07
   16.87             42509.8             79.3664        -1.05438e+06         3.36705e+07
   16.89             42482.7             79.3609        -1.05306e+06         3.36212e+07
   16.91             42455.9             79.3552        -1.05175e+06         3.35723e+07
   16.93             42429.2             79.3491        -1.05045e+06         3.35237e+07
   16.95             42402.8             79.3428        -1.04916e+06         3.34755e+07
   16.97             42376.5             79.3362        -1.04788e+06         3.34277e+07
   16.99             42350.4             79.3293        -1.04661e+06         3.33802e+07
   17.01             42324.5             79.3221        -1.04535e+06         3.33331e+07
   17.03             42298.8             79.3145         -1.0441e+06         3.32863e+07
   17.05             42273.2             79.3066        -1.04286e+06         3.32398e+07
   17.07             42247.8             79.2984        -1.04163e+06         3.31937e+07
   17.09             42222.5             79.2899         -1.0404e+06         3.31479e+07
   17.11             42197.4             79.2809        -1.03919e+06         3.31024e+07
   17.13             42172.4             79.2717        -1.03798e+06         3.30573e+07
   17.15             42147.5              79.262        -1.03678e+06         3.30124e+07
   17.17             42122.7              79.252        -1.03559e+06         3.29679e+07
   17.19             42098.1             79.2415        -1.03441e+06         3.29237e+07
   17.21             42073.6             79.2307        -1.03324e+06         3.28798e+07
   17.23             42049.2             79.2195        -1.03207e+06         3.28362e+07
   17.25             42024.9             79.2078        -1.03091e+06         3.27929e+07
   17.27             42000.6             79.1957        -1.02976e+06         3.27499e+07
   17.29             41976.5             79.1832        -1.02862e+06         3.27072e+07
   17.31             41952.5             79.1703        -1.02749e+06         3.26648e+07
   17.33             41928.5             79.1569        -1.02636e+06         3.26227e+07
   17.35             41904.6             79.1431        -1.02524e+06         3.25809e+07
   17.37             41880.8             79.1288        -1.02412e+06         3.25393e+07
   17.39               41857              79.114        -1.02302e+06          3.2498e+07
   17.41             41833.3             79.0988        -1.02192e+06          3.2457e+07
   17.43             41809.7              79.083        -1.02083e+06         3.24162e+07
   17.45             41786.1             79.0668        -1.01974e+06         3.23758e+07
   17.47             41762.5             79.0501        -1.01866e+06         3.23355e+07
   17.49               41739             79.0329        -1.01759e+06         3.22956e+07
   17.51             41715.6             79.0152        -1.01652e+06         3.22559e+07
   17.53             41692.1              78.997        -1.01546e+06         3.22164e+07
   17.55             41668.7             78.9783        -1.01441e+06         3.21773e+07
   17.57             41645.3              78.959        -1.01336e+06         3.21383e+07
   17.59             41621.9             78.9393        -1.01232e+06         3.20996e+07
   17.61             41598.6             78.9189        -1.01129e+06         3.20612e+07
   17.63             41575.2             78.8981        -1.01026e+06         3.20229e+07
   17.65             41551.9             78.8767        -1.00923e+06          3.1985e+07
   17.67             41528.5             78.8547        -1.00822e+06         3.19472e+07
   17.69             41505.2             78.8322         -1.0072e+06         3.19097e+07
   17.71             41481.8             78.8091         -1.0062e+06         3.18724e+07
   17.73             41458.5             78.7855         -1.0052e+06         3.18354e+07
   17.75             41435.1             78.7613         -1.0042e+06         3.17985e+07
   17.77             41411.7             78.7365        -1.00321e+06         3.17619e+07
   17.79             41388.3             78.7111        -1.00222e+06         3.17256e+07
   17.81             41364.9             78.6852        -1.00124e+06         3.16894e+07
   17.83             41341.4             78.6586        -1.00027e+06         3.16534e+07
   17.85             41317.9             78.6315             -999301         3.16177e+07
   17.87             41294.4             78.6037             -998336         3.15822e+07
   17.89             41270.9             78.5754             -997376         3.15468e+07
   17.91             41247.3             78.5464             -996421         3.15117e+07
   17.93             41223.6             78.5169             -995471         3.14768e+07
   17.95               41200             78.4867             -994526         3.14421e+07
   17.97             41176.2             78.4559             -993585         3.14076e+07
   17.99             41152.5             78.4245             -992649         3.13733e+07
   18.01             41128.6             78.3925             -991717         3.13392e+07
   18.03             41104.8             78.3598             -990790         3.13052e+07
   18.05             41080.8             78.3265             -989867         3.12715e+07
   18.07             41056.8             78.2926             -988948          3.1238e+07
   18.09             41032.8              78.258             -988034         3.12046e+07
   18.11             41008.6             78.2228             -987124         3.11715e+07
   18.13             40984.4              78.187             -986219         3.11385e+07
   18.15             40960.2             78.1505             -985317         3.11057e+07
   18.17             40935.9             78.1133             -984420         3.10731e+07
   18.19             40911.5             78.0756             -983526         3.10406e+07
   18.21               40887             78.0371             -982637         3.10084e+07
   18.23             40862.4              77.998             -981751         3.09763e+07
   18.25             40837.8             77.9582             -980870         3.09444e+07
   18.27             40813.1             77.9178             -979992         3.09127e+07
   18.29             40788.3             77.8767             -979118         3.08811e+07
   18.31             40763.4              77.835             -978248         3.08497e+07
   18.33             40738.4             77.7926             -977382         3.08185e+07
   18.35             40713.3             77.7495             -976519         3.07874e+07
   18.37             40688.2             77.7058             -975660         3.07566e+07
   18.39               40663             77.6613             -974805         3.07258e+07
   18.41             40637.6             77.6163             -973953         3.06953e+07
   18.43             40612.2             77.5705             -973104         3.06649e+07
   18.45             40586.7             77.5241             -972260         3.06347e+07
   18.47             40561.1             77.4769             -971418         3.06046e+07
   18.49             40535.3             77.4291             -970580         3.05747e+07
   18.51             40509.5             77.3807             -969746         3.05449e+07
   18.53             40483.6             77.3315             -968915         3.05153e+07
   18.55             40457.6             77.2817             -968087         3.04859e+07
   18.57             40431.5             77.2312             -967262         3.04566e+07
   18.59             40405.3               77.18             -966441         3.04275e+07
   18.61             40378.9             77.1281             -965623         3.03985e+07
   18.63             40352.5             77.0756             -964808         3.03697e+07
   18.65               40326             77.0224             -963997          3.0341e+07
   18.67             40299.3             76.9684             -963188         3.03124e+07
   18.69             40272.6             76.9138             -962383         3.02841e+07
   18.71             40245.7             76.8585             -961581         3.02558e+07
   18.73             40218.7             76.8026             -960782         3.02277e+07
   18.75             40191.6             76.7459             -959985         3.01998e+07
   18.77             40164.5             76.6886             -959192          3.0172e+07
   18.79             40137.2             76.6306             -958402         3.01443e+07
   18.81             40109.7             76.5719             -957615         3.01168e+07
   18.83             40082.2             76.5125             -956831         3.00894e+07
   18.85             40054.6             76.4524             -956050         3.00622e+07
   18.87             40026.8             76.3917             -955272         3.00351e+07
   18.89               39999             76.3302             -954497         3.00081e+07
   18.91               39971             76.2681             -953724         2.99813e+07
   18.93             39942.9             76.2054             -952955         2.99547e+07
   18.95             39914.7             76.1419             -952188         2.99281e+07
   18.97             39886.4             76.0777             -951424         2.99017e+07
   18.99             39857.9             76.0129             -950663         2.98754e+07
   19.01             39829.4             75.9474             -949905         2.98493e+07
   19.03             39800.7             75.8812             -949149         2.98233e+07
   19.05             39771.9             75.8144             -948396         2.97974e+07
   19.07               39743             75.7469             -947646         2.97717e+07
   19.09               39714             75.6787             -946899         2.97461e+07
   19.11             39684.9             75.6098             -946155         2.97206e+07
   19.13             39655.6             75.5403             -945413         2.96953e+07
   19.15             39626.3             75.4701             -944674         2.96701e+07
   19.17             39596.8             75.3992             -943937          2.9645e+07
   19.19             39567.2             75.3277             -943203         2.96201e+07
   19.21             39537.5             75.2555             -942472         2.95952e+07
   19.23             39507.7             75.1826             -941743         2.95706e+07
   19.25             39477.7             75.1091             -941017          2.9546e+07
   19.27             39447.7             75.0349             -940294         2.95216e+07
   19.29             39417.5             74.9601             -939573         2.94972e+07
   19.31             39387.2             74.8846             -938855         2.94731e+07
   19.33             39356.8             74.8085             -938139          2.9449e+07
   19.35             39326.3             74.7317             -937426         2.94251e+07
   19.37             39295.7             74.6543             -936716         2.94013e+07
   19.39               39265             74.5762             -936008         2.93776e+07
   19.41             39234.1             74.4975             -935302          2.9354e+07
   19.43             39203.1             74.4181             -934599         2.93306e+07
   19.45             39172.1             74.3381             -933899         2.93073e+07
   19.47             39140.9             74.2575             -933201         2.92841e+07
   19.49             39109.6             74.1762             -932505          2.9261e+07
   19.51             39078.2             74.0943             -931812          2.9238e+07
   19.53             39046.7             74.0118             -931122         2.92152e+07
   19.55               39015             73.9287             -930433         2.91925e+07
   19.57             38983.3             73.8449             -929748         2.91699e+07
   19.59             38951.4             73.7605             -929064         2.91474e+07
   19.61             38919.5             73.6755             -928384         2.91251e+07
   19.63             38887.4             73.5898             -927705         2.91028e+07
   19.65             38855.2             73.5036             -927029         2.90807e+07
   19.67               38823             73.4167             -926355         2.90587e+07
   19.69             38790.6             73.3293             -925684         2.90368e+07
   19.71             38758.1             73.2412             -925015         2.90151e+07
   19.73             38725.5             73.1526             -924348         2.89934e+07
   19.75             38692.8             73.0633             -923684         2.89719e+07
   19.77               38660             72.9735             -923022         2.89505e+07
   19.79               38627              72.883             -922362         2.89292e+07
   19.81               38594              72.792             -921705          2.8908e+07
   19.83             38560.9             72.7004             -921050         2.88869e+07
   19.85             38527.7             72.6082             -920397         2.88659e+07
   19.87             38494.4             72.5154             -919746         2.88451e+07
   19.89             38460.9              72.422             -919098         2.88243e+07
   19.91             38427.4             72.3281             -918452         2.88037e+07
   19.93             38393.8             72.2336             -917808         2.87832e+07
   19.95             38360.1             72.1385             -917167         2.87628e+07
   19.97             38326.2             72.0429             -916527         2.87425e+07
   19.99             38292.3             71.9468             -915890         2.87223e+07
