## w(eV)         sigma(Sm^-1)     kappa(W(mK)^-1)        L12/e(Am^-1)      L22/e^2(Wm^-1)
    0.01              216803             254.989        -5.42651e+06         1.59979e+08
    0.03              216802             254.988        -5.42648e+06         1.59978e+08
    0.05              216800             254.986        -5.42643e+06         1.59977e+08
    0.07              216797             254.982        -5.42635e+06         1.59975e+08
    0.09              216793             254.977        -5.42625e+06         1.59972e+08
    0.11              216788             254.971        -5.42612e+06         1.59968e+08
    0.13              216782             254.964        -5.42597e+06         1.59963e+08
    0.15              216775             254.955        -5.42579e+06         1.59958e+08
    0.17              216767             254.946        -5.42559e+06         1.59952e+08
    0.19              216758             254.935        -5.42536e+06         1.59945e+08
    0.21              216748             254.923        -5.42511e+06         1.59937e+08
    0.23              216737             254.909        -5.42483e+06         1.59929e+08
    0.25              216725             254.895        -5.42452e+06          1.5992e+08
    0.27              216712             254.879        -5.42419e+06          1.5991e+08
    0.29              216698             254.862        -5.42383e+06           1.599e+08
    0.31              216683             254.844        -5.42345e+06         1.59888e+08
    0.33              216667             254.824        -5.42305e+06         1.59876e+08
    0.35              216650             254.804        -5.42261e+06         1.59863e+08
    0.37              216631             254.782        -5.42216e+06         1.59849e+08
    0.39              216612             254.759        -5.42167e+06         1.59835e+08
    0.41              216592             254.735        -5.42116e+06          1.5982e+08
    0.43              216571             254.709        -5.42063e+06         1.59804e+08
    0.45              216549             254.683        -5.42007e+06         1.59787e+08
    0.47              216526             254.655        -5.41949e+06          1.5977e+08
    0.49              216502             254.626        -5.41888e+06         1.59752e+08
    0.51              216477             254.596        -5.41824e+06         1.59733e+08
    0.53              216451             254.564        -5.41758e+06         1.59713e+08
    0.55              216424             254.531        -5.41689e+06         1.59693e+08
    0.57              216396             254.498        -5.41618e+06         1.59671e+08
    0.59              216366             254.462        -5.41545e+06         1.59649e+08
    0.61              216336             254.426        -5.41468e+06         1.59627e+08
    0.63              216305             254.389         -5.4139e+06         1.59603e+08
    0.65              216273              254.35        -5.41309e+06         1.59579e+08
    0.67              216240              254.31        -5.41225e+06         1.59554e+08
    0.69              216206             254.269        -5.41139e+06         1.59528e+08
    0.71              216171             254.227         -5.4105e+06         1.59502e+08
    0.73              216135             254.183        -5.40958e+06         1.59474e+08
    0.75              216098             254.138        -5.40865e+06         1.59446e+08
    0.77              216060             254.093        -5.40768e+06         1.59418e+08
    0.79              216021             254.045        -5.40669e+06         1.59388e+08
    0.81              215981             253.997        -5.40568e+06         1.59358e+08
    0.83              215940             253.948        -5.40464e+06         1.59327e+08
    0.85              215898             253.897        -5.40358e+06         1.59295e+08
    0.87              215855             253.845        -5.40249e+06         1.59263e+08
    0.89              215811             253.792        -5.40137e+06          1.5923e+08
    0.91              215766             253.738        -5.40023e+06         1.59196e+08
    0.93              215720             253.682        -5.39907e+06         1.59161e+08
    0.95              215673             253.626        -5.39788e+06         1.59125e+08
    0.97              215625             253.568        -5.39666e+06         1.59089e+08
    0.99              215576             253.509        -5.39542e+06         1.59052e+08
    1.01              215526             253.449        -5.39416e+06         1.59014e+08
    1.03              215475             253.387        -5.39287e+06         1.58976e+08
    1.05              215423             253.325        -5.39156e+06         1.58937e+08
    1.07              215370             253.261        -5.39022e+06         1.58897e+08
    1.09              215316             253.196        -5.38885e+06         1.58856e+08
    1.11              215261              253.13        -5.38746e+06         1.58815e+08
    1.13              215205             253.062        -5.38605e+06         1.58773e+08
    1.15              215149             252.994        -5.38461e+06          1.5873e+08
    1.17              215091             252.924        -5.38315e+06         1.58686e+08
    1.19              215032             252.853        -5.38166e+06         1.58642e+08
    1.21              214972             252.781        -5.38015e+06         1.58596e+08
    1.23              214911             252.708        -5.37861e+06         1.58551e+08
    1.25              214850             252.634        -5.37705e+06         1.58504e+08
    1.27              214787             252.558        -5.37546e+06         1.58457e+08
    1.29              214723             252.481        -5.37385e+06         1.58409e+08
    1.31              214659             252.404        -5.37221e+06          1.5836e+08
    1.33              214593             252.324        -5.37055e+06          1.5831e+08
    1.35              214527             252.244        -5.36886e+06          1.5826e+08
    1.37              214459             252.163        -5.36715e+06         1.58209e+08
    1.39              214391              252.08        -5.36542e+06         1.58157e+08
    1.41              214321             251.997        -5.36366e+06         1.58105e+08
    1.43              214251             251.912        -5.36187e+06         1.58051e+08
    1.45              214179             251.826        -5.36006e+06         1.57997e+08
    1.47              214107             251.738        -5.35823e+06         1.57943e+08
    1.49              214033              251.65        -5.35637e+06         1.57887e+08
    1.51              213959              251.56        -5.35449e+06         1.57831e+08
    1.53              213884              251.47        -5.35259e+06         1.57774e+08
    1.55              213808             251.378        -5.35066e+06         1.57717e+08
    1.57              213730             251.285         -5.3487e+06         1.57659e+08
    1.59              213652             251.191        -5.34672e+06           1.576e+08
    1.61              213573             251.095        -5.34472e+06          1.5754e+08
    1.63              213493             250.999        -5.34269e+06         1.57479e+08
    1.65              213412             250.901        -5.34064e+06         1.57418e+08
    1.67              213330             250.803        -5.33856e+06         1.57356e+08
    1.69              213247             250.703        -5.33646e+06         1.57294e+08
    1.71              213163             250.602        -5.33434e+06          1.5723e+08
    1.73              213078               250.5        -5.33219e+06         1.57166e+08
    1.75              212993             250.396        -5.33002e+06         1.57101e+08
    1.77              212906             250.292        -5.32782e+06         1.57036e+08
    1.79              212818             250.186         -5.3256e+06          1.5697e+08
    1.81              212730             250.079        -5.32336e+06         1.56903e+08
    1.83              212640             249.972        -5.32109e+06         1.56835e+08
    1.85              212550             249.863         -5.3188e+06         1.56767e+08
    1.87              212458             249.753        -5.31649e+06         1.56698e+08
    1.89              212366             249.641        -5.31415e+06         1.56628e+08
    1.91              212272             249.529        -5.31178e+06         1.56558e+08
    1.93              212178             249.415         -5.3094e+06         1.56486e+08
    1.95              212083             249.301        -5.30699e+06         1.56414e+08
    1.97              211987             249.185        -5.30455e+06         1.56342e+08
    1.99              211890             249.068         -5.3021e+06         1.56269e+08
    2.01              211792              248.95        -5.29961e+06         1.56195e+08
    2.03              211693             248.831        -5.29711e+06          1.5612e+08
    2.05              211593             248.711        -5.29458e+06         1.56044e+08
    2.07              211492              248.59        -5.29203e+06         1.55968e+08
    2.09              211391             248.468        -5.28945e+06         1.55892e+08
    2.11              211288             248.344        -5.28686e+06         1.55814e+08
    2.13              211185             248.219        -5.28423e+06         1.55736e+08
    2.15              211080             248.094        -5.28159e+06         1.55657e+08
    2.17              210975             247.967        -5.27892e+06         1.55577e+08
    2.19              210869             247.839        -5.27623e+06         1.55497e+08
    2.21              210761              247.71        -5.27352e+06         1.55416e+08
    2.23              210653              247.58        -5.27078e+06         1.55335e+08
    2.25              210544             247.449        -5.26802e+06         1.55252e+08
    2.27              210434             247.317        -5.26523e+06         1.55169e+08
    2.29              210323             247.183        -5.26243e+06         1.55086e+08
    2.31              210212             247.049         -5.2596e+06         1.55001e+08
    2.33              210099             246.913        -5.25674e+06         1.54916e+08
    2.35              209985             246.777        -5.25387e+06          1.5483e+08
    2.37              209871             246.639        -5.25097e+06         1.54744e+08
    2.39              209756               246.5        -5.24805e+06         1.54657e+08
    2.41              209639              246.36         -5.2451e+06         1.54569e+08
    2.43              209522              246.22        -5.24214e+06          1.5448e+08
    2.45              209404             246.078        -5.23915e+06         1.54391e+08
    2.47              209285             245.935        -5.23614e+06         1.54302e+08
    2.49              209166             245.791         -5.2331e+06         1.54211e+08
    2.51              209045             245.645        -5.23004e+06          1.5412e+08
    2.53              208923             245.499        -5.22696e+06         1.54028e+08
    2.55              208801             245.352        -5.22386e+06         1.53936e+08
    2.57              208677             245.204        -5.22074e+06         1.53842e+08
    2.59              208553             245.054        -5.21759e+06         1.53749e+08
    2.61              208428             244.904        -5.21442e+06         1.53654e+08
    2.63              208302             244.752        -5.21123e+06         1.53559e+08
    2.65              208175               244.6        -5.20802e+06         1.53463e+08
    2.67              208047             244.446        -5.20478e+06         1.53367e+08
    2.69              207919             244.292        -5.20152e+06         1.53269e+08
    2.71              207789             244.136        -5.19824e+06         1.53172e+08
    2.73              207659              243.98        -5.19494e+06         1.53073e+08
    2.75              207528             243.822        -5.19162e+06         1.52974e+08
    2.77              207396             243.663        -5.18827e+06         1.52874e+08
    2.79              207263             243.503        -5.18491e+06         1.52774e+08
    2.81              207129             243.343        -5.18152e+06         1.52673e+08
    2.83              206994             243.181         -5.1781e+06         1.52571e+08
    2.85              206859             243.018        -5.17467e+06         1.52469e+08
    2.87              206722             242.854        -5.17122e+06         1.52366e+08
    2.89              206585             242.689        -5.16774e+06         1.52262e+08
    2.91              206447             242.523        -5.16424e+06         1.52158e+08
    2.93              206308             242.357        -5.16073e+06         1.52053e+08
    2.95              206168             242.189        -5.15718e+06         1.51947e+08
    2.97              206028              242.02        -5.15362e+06         1.51841e+08
    2.99              205886              241.85        -5.15004e+06         1.51734e+08
    3.01              205744             241.679        -5.14644e+06         1.51627e+08
    3.03              205601             241.507        -5.14281e+06         1.51519e+08
    3.05              205457             241.334        -5.13916e+06          1.5141e+08
    3.07              205312             241.161         -5.1355e+06         1.51301e+08
    3.09              205166             240.986        -5.13181e+06         1.51191e+08
    3.11              205020              240.81         -5.1281e+06          1.5108e+08
    3.13              204873             240.633        -5.12437e+06         1.50969e+08
    3.15              204724             240.455        -5.12061e+06         1.50857e+08
    3.17              204575             240.277        -5.11684e+06         1.50744e+08
    3.19              204426             240.097        -5.11305e+06         1.50631e+08
    3.21              204275             239.916        -5.10923e+06         1.50518e+08
    3.23              204124             239.735         -5.1054e+06         1.50403e+08
    3.25              203972             239.552        -5.10154e+06         1.50288e+08
    3.27              203819             239.368        -5.09767e+06         1.50173e+08
    3.29              203665             239.184        -5.09377e+06         1.50057e+08
    3.31              203510             238.998        -5.08985e+06          1.4994e+08
    3.33              203355             238.812        -5.08592e+06         1.49822e+08
    3.35              203198             238.625        -5.08196e+06         1.49704e+08
    3.37              203041             238.436        -5.07798e+06         1.49586e+08
    3.39              202884             238.247        -5.07398e+06         1.49467e+08
    3.41              202725             238.057        -5.06996e+06         1.49347e+08
    3.43              202566             237.866        -5.06593e+06         1.49226e+08
    3.45              202405             237.673        -5.06187e+06         1.49105e+08
    3.47              202244              237.48        -5.05779e+06         1.48984e+08
    3.49              202083             237.287        -5.05369e+06         1.48862e+08
    3.51              201920             237.092        -5.04957e+06         1.48739e+08
    3.53              201757             236.896        -5.04543e+06         1.48616e+08
    3.55              201593             236.699        -5.04128e+06         1.48492e+08
    3.57              201428             236.501         -5.0371e+06         1.48367e+08
    3.59              201262             236.303         -5.0329e+06         1.48242e+08
    3.61              201096             236.104        -5.02869e+06         1.48116e+08
    3.63              200928             235.903        -5.02445e+06          1.4799e+08
    3.65              200760             235.702        -5.02019e+06         1.47863e+08
    3.67              200592               235.5        -5.01592e+06         1.47736e+08
    3.69              200422             235.297        -5.01163e+06         1.47608e+08
    3.71              200252             235.093        -5.00731e+06         1.47479e+08
    3.73              200081             234.888        -5.00298e+06          1.4735e+08
    3.75              199909             234.682        -4.99863e+06          1.4722e+08
    3.77              199737             234.476        -4.99426e+06          1.4709e+08
    3.79              199564             234.268        -4.98987e+06         1.46959e+08
    3.81              199390              234.06        -4.98546e+06         1.46828e+08
    3.83              199215             233.851        -4.98103e+06         1.46696e+08
    3.85              199039              233.64        -4.97659e+06         1.46563e+08
    3.87              198863             233.429        -4.97212e+06          1.4643e+08
    3.89              198686             233.218        -4.96764e+06         1.46296e+08
    3.91              198508             233.005        -4.96314e+06         1.46162e+08
    3.93              198330             232.791        -4.95862e+06         1.46028e+08
    3.95              198151             232.577        -4.95408e+06         1.45892e+08
    3.97              197971             232.362        -4.94952e+06         1.45756e+08
    3.99              197791             232.146        -4.94495e+06          1.4562e+08
    4.01              197609             231.929        -4.94035e+06         1.45483e+08
    4.03              197427             231.711        -4.93574e+06         1.45346e+08
    4.05              197244             231.492        -4.93111e+06         1.45208e+08
    4.07              197061             231.273        -4.92646e+06         1.45069e+08
    4.09              196877             231.052         -4.9218e+06          1.4493e+08
    4.11              196692             230.831        -4.91711e+06          1.4479e+08
    4.13              196506             230.609        -4.91241e+06          1.4465e+08
    4.15              196320             230.387        -4.90769e+06          1.4451e+08
    4.17              196133             230.163        -4.90295e+06         1.44368e+08
    4.19              195946             229.939         -4.8982e+06         1.44227e+08
    4.21              195757             229.714        -4.89343e+06         1.44084e+08
    4.23              195568             229.488        -4.88864e+06         1.43942e+08
    4.25              195379             229.261        -4.88383e+06         1.43798e+08
    4.27              195188             229.033        -4.87901e+06         1.43655e+08
    4.29              194997             228.805        -4.87416e+06          1.4351e+08
    4.31              194805             228.576         -4.8693e+06         1.43365e+08
    4.33              194613             228.346        -4.86443e+06          1.4322e+08
    4.35              194420             228.115        -4.85953e+06         1.43074e+08
    4.37              194226             227.883        -4.85462e+06         1.42928e+08
    4.39              194032             227.651         -4.8497e+06         1.42781e+08
    4.41              193836             227.418        -4.84475e+06         1.42634e+08
    4.43              193641             227.184        -4.83979e+06         1.42486e+08
    4.45              193444             226.949        -4.83481e+06         1.42338e+08
    4.47              193247             226.714        -4.82982e+06         1.42189e+08
    4.49              193049             226.478        -4.82481e+06         1.42039e+08
    4.51              192851             226.241        -4.81978e+06          1.4189e+08
    4.53              192652             226.003        -4.81474e+06         1.41739e+08
    4.55              192452             225.765        -4.80968e+06         1.41589e+08
    4.57              192252             225.526         -4.8046e+06         1.41437e+08
    4.59              192051             225.286        -4.79951e+06         1.41285e+08
    4.61              191850             225.045         -4.7944e+06         1.41133e+08
    4.63              191647             224.804        -4.78928e+06         1.40981e+08
    4.65              191444             224.562        -4.78414e+06         1.40827e+08
    4.67              191241             224.319        -4.77898e+06         1.40674e+08
    4.69              191037             224.075        -4.77381e+06          1.4052e+08
    4.71              190832             223.831        -4.76862e+06         1.40365e+08
    4.73              190627             223.586        -4.76342e+06          1.4021e+08
    4.75              190421              223.34         -4.7582e+06         1.40054e+08
    4.77              190214             223.094        -4.75296e+06         1.39898e+08
    4.79              190007             222.847        -4.74771e+06         1.39742e+08
    4.81              189799             222.599        -4.74244e+06         1.39585e+08
    4.83              189591             222.351        -4.73716e+06         1.39428e+08
    4.85              189382             222.101        -4.73187e+06          1.3927e+08
    4.87              189172             221.852        -4.72656e+06         1.39112e+08
    4.89              188962             221.601        -4.72123e+06         1.38953e+08
    4.91              188752              221.35        -4.71589e+06         1.38794e+08
    4.93              188540             221.098        -4.71053e+06         1.38634e+08
    4.95              188328             220.845        -4.70516e+06         1.38474e+08
    4.97              188116             220.592        -4.69977e+06         1.38314e+08
    4.99              187903             220.338        -4.69437e+06         1.38153e+08
    5.01              187689             220.083        -4.68896e+06         1.37991e+08
    5.03              187475             219.828        -4.68353e+06          1.3783e+08
    5.05              187260             219.572        -4.67808e+06         1.37667e+08
    5.07              187045             219.316        -4.67263e+06         1.37505e+08
    5.09              186829             219.059        -4.66715e+06         1.37342e+08
    5.11              186612             218.801        -4.66167e+06         1.37178e+08
    5.13              186395             218.542        -4.65616e+06         1.37014e+08
    5.15              186178             218.283        -4.65065e+06          1.3685e+08
    5.17              185959             218.023        -4.64512e+06         1.36685e+08
    5.19              185741             217.763        -4.63958e+06          1.3652e+08
    5.21              185521             217.502        -4.63402e+06         1.36355e+08
    5.23              185302              217.24        -4.62845e+06         1.36189e+08
    5.25              185081             216.978        -4.62286e+06         1.36022e+08
    5.27              184860             216.715        -4.61726e+06         1.35856e+08
    5.29              184639             216.452        -4.61165e+06         1.35688e+08
    5.31              184417             216.188        -4.60603e+06         1.35521e+08
    5.33              184195             215.923        -4.60039e+06         1.35353e+08
    5.35              183972             215.658        -4.59474e+06         1.35185e+08
    5.37              183748             215.392        -4.58907e+06         1.35016e+08
    5.39              183524             215.126        -4.58339e+06         1.34847e+08
    5.41              183300             214.859         -4.5777e+06         1.34677e+08
    5.43              183075             214.591          -4.572e+06         1.34507e+08
    5.45              182849             214.323        -4.56628e+06         1.34337e+08
    5.47              182623             214.054        -4.56055e+06         1.34166e+08
    5.49              182397             213.785        -4.55481e+06         1.33995e+08
    5.51              182169             213.515        -4.54906e+06         1.33824e+08
    5.53              181942             213.244        -4.54329e+06         1.33652e+08
    5.55              181714             212.973        -4.53751e+06          1.3348e+08
    5.57              181485             212.702        -4.53172e+06         1.33307e+08
    5.59              181256              212.43        -4.52591e+06         1.33134e+08
    5.61              181027             212.157        -4.52009e+06         1.32961e+08
    5.63              180797             211.884        -4.51426e+06         1.32788e+08
    5.65              180567              211.61        -4.50842e+06         1.32614e+08
    5.67              180336             211.336        -4.50257e+06         1.32439e+08
    5.69              180104             211.061         -4.4967e+06         1.32265e+08
    5.71              179872             210.786        -4.49083e+06          1.3209e+08
    5.73              179640              210.51        -4.48494e+06         1.31914e+08
    5.75              179407             210.233        -4.47904e+06         1.31738e+08
    5.77              179174             209.957        -4.47313e+06         1.31562e+08
    5.79              178941             209.679         -4.4672e+06         1.31386e+08
    5.81              178706             209.401        -4.46127e+06         1.31209e+08
    5.83              178472             209.123        -4.45532e+06         1.31032e+08
    5.85              178237             208.844        -4.44936e+06         1.30855e+08
    5.87              178001             208.565         -4.4434e+06         1.30677e+08
    5.89              177765             208.285        -4.43742e+06         1.30499e+08
    5.91              177529             208.004        -4.43143e+06         1.30321e+08
    5.93              177292             207.724        -4.42542e+06         1.30142e+08
    5.95              177055             207.442        -4.41941e+06         1.29963e+08
    5.97              176818              207.16        -4.41339e+06         1.29783e+08
    5.99              176580             206.878        -4.40735e+06         1.29604e+08
    6.01              176341             206.596        -4.40131e+06         1.29424e+08
    6.03              176102             206.312        -4.39526e+06         1.29244e+08
    6.05              175863             206.029        -4.38919e+06         1.29063e+08
    6.07              175623             205.745        -4.38311e+06         1.28882e+08
    6.09              175383              205.46        -4.37703e+06         1.28701e+08
    6.11              175143             205.175        -4.37093e+06         1.28519e+08
    6.13              174902              204.89        -4.36483e+06         1.28338e+08
    6.15              174661             204.604        -4.35871e+06         1.28155e+08
    6.17              174419             204.318        -4.35258e+06         1.27973e+08
    6.19              174177             204.031        -4.34645e+06          1.2779e+08
    6.21              173935             203.744         -4.3403e+06         1.27607e+08
    6.23              173692             203.456        -4.33415e+06         1.27424e+08
    6.25              173449             203.168        -4.32798e+06         1.27241e+08
    6.27              173205              202.88        -4.32181e+06         1.27057e+08
    6.29              172961             202.591        -4.31562e+06         1.26873e+08
    6.31              172717             202.302        -4.30943e+06         1.26688e+08
    6.33              172472             202.012        -4.30323e+06         1.26504e+08
    6.35              172227             201.722        -4.29702e+06         1.26319e+08
    6.37              171982             201.432         -4.2908e+06         1.26134e+08
    6.39              171736             201.141        -4.28457e+06         1.25948e+08
    6.41              171490              200.85        -4.27833e+06         1.25763e+08
    6.43              171244             200.558        -4.27208e+06         1.25577e+08
    6.45              170997             200.266        -4.26582e+06          1.2539e+08
    6.47              170750             199.974        -4.25956e+06         1.25204e+08
    6.49              170502             199.681        -4.25329e+06         1.25017e+08
    6.51              170255             199.388          -4.247e+06          1.2483e+08
    6.53              170006             199.095        -4.24071e+06         1.24643e+08
    6.55              169758             198.801        -4.23442e+06         1.24455e+08
    6.57              169509             198.507        -4.22811e+06         1.24268e+08
    6.59              169260             198.213        -4.22179e+06          1.2408e+08
    6.61              169011             197.918        -4.21547e+06         1.23892e+08
    6.63              168761             197.623        -4.20914e+06         1.23703e+08
    6.65              168511             197.327         -4.2028e+06         1.23515e+08
    6.67              168261             197.031        -4.19645e+06         1.23326e+08
    6.69              168010             196.735         -4.1901e+06         1.23137e+08
    6.71              167759             196.439        -4.18374e+06         1.22947e+08
    6.73              167508             196.142        -4.17737e+06         1.22758e+08
    6.75              167256             195.845        -4.17099e+06         1.22568e+08
    6.77              167004             195.548        -4.16461e+06         1.22378e+08
    6.79              166752              195.25        -4.15822e+06         1.22188e+08
    6.81              166500             194.952        -4.15182e+06         1.21997e+08
    6.83              166247             194.654        -4.14541e+06         1.21807e+08
    6.85              165994             194.355          -4.139e+06         1.21616e+08
    6.87              165741             194.056        -4.13258e+06         1.21425e+08
    6.89              165488             193.757        -4.12615e+06         1.21234e+08
    6.91              165234             193.457        -4.11972e+06         1.21042e+08
    6.93              164980             193.158        -4.11328e+06         1.20851e+08
    6.95              164725             192.858        -4.10683e+06         1.20659e+08
    6.97              164471             192.557        -4.10037e+06         1.20467e+08
    6.99              164216             192.257        -4.09391e+06         1.20274e+08
    7.01              163961             191.956        -4.08745e+06         1.20082e+08
    7.03              163706             191.655        -4.08098e+06          1.1989e+08
    7.05              163450             191.354         -4.0745e+06         1.19697e+08
    7.07              163194             191.052        -4.06801e+06         1.19504e+08
    7.09              162938              190.75        -4.06152e+06         1.19311e+08
    7.11              162682             190.448        -4.05502e+06         1.19117e+08
    7.13              162425             190.146        -4.04852e+06         1.18924e+08
    7.15              162169             189.843        -4.04201e+06          1.1873e+08
    7.17              161912              189.54         -4.0355e+06         1.18537e+08
    7.19              161655             189.237        -4.02898e+06         1.18343e+08
    7.21              161397             188.934        -4.02245e+06         1.18149e+08
    7.23              161140             188.631        -4.01592e+06         1.17954e+08
    7.25              160882             188.327        -4.00938e+06          1.1776e+08
    7.27              160624             188.023        -4.00284e+06         1.17565e+08
    7.29              160365             187.719         -3.9963e+06         1.17371e+08
    7.31              160107             187.415        -3.98974e+06         1.17176e+08
    7.33              159848              187.11        -3.98319e+06         1.16981e+08
    7.35              159589             186.806        -3.97663e+06         1.16785e+08
    7.37              159330             186.501        -3.97006e+06          1.1659e+08
    7.39              159071             186.196        -3.96349e+06         1.16395e+08
    7.41              158812              185.89        -3.95691e+06         1.16199e+08
    7.43              158552             185.585        -3.95033e+06         1.16003e+08
    7.45              158292             185.279        -3.94374e+06         1.15808e+08
    7.47              158032             184.974        -3.93716e+06         1.15612e+08
    7.49              157772             184.668        -3.93056e+06         1.15416e+08
    7.51              157512             184.362        -3.92396e+06         1.15219e+08
    7.53              157252             184.055        -3.91736e+06         1.15023e+08
    7.55              156991             183.749        -3.91075e+06         1.14827e+08
    7.57              156730             183.442        -3.90414e+06          1.1463e+08
    7.59              156469             183.136        -3.89753e+06         1.14433e+08
    7.61              156208             182.829        -3.89091e+06         1.14237e+08
    7.63              155947             182.522        -3.88429e+06          1.1404e+08
    7.65              155686             182.214        -3.87766e+06         1.13843e+08
    7.67              155424             181.907        -3.87103e+06         1.13646e+08
    7.69              155162               181.6         -3.8644e+06         1.13448e+08
    7.71              154901             181.292        -3.85776e+06         1.13251e+08
    7.73              154639             180.985        -3.85112e+06         1.13054e+08
    7.75              154376             180.677        -3.84448e+06         1.12856e+08
    7.77              154114             180.369        -3.83783e+06         1.12659e+08
    7.79              153852             180.061        -3.83118e+06         1.12461e+08
    7.81              153589             179.753        -3.82453e+06         1.12263e+08
    7.83              153327             179.444        -3.81788e+06         1.12065e+08
    7.85              153064             179.136        -3.81122e+06         1.11867e+08
    7.87              152801             178.828        -3.80456e+06         1.11669e+08
    7.89              152539             178.519        -3.79789e+06         1.11471e+08
    7.91              152276             178.211        -3.79123e+06         1.11273e+08
    7.93              152012             177.902        -3.78456e+06         1.11075e+08
    7.95              151749             177.593        -3.77789e+06         1.10877e+08
    7.97              151486             177.284        -3.77121e+06         1.10678e+08
    7.99              151223             176.975        -3.76454e+06          1.1048e+08
    8.01              150959             176.667        -3.75786e+06         1.10281e+08
    8.03              150695             176.357        -3.75118e+06         1.10083e+08
    8.05              150432             176.048         -3.7445e+06         1.09884e+08
    8.07              150168             175.739        -3.73781e+06         1.09686e+08
    8.09              149904              175.43        -3.73113e+06         1.09487e+08
    8.11              149640             175.121        -3.72444e+06         1.09288e+08
    8.13              149376             174.811        -3.71775e+06         1.09089e+08
    8.15              149112             174.502        -3.71106e+06         1.08891e+08
    8.17              148848             174.193        -3.70437e+06         1.08692e+08
    8.19              148584             173.883        -3.69767e+06         1.08493e+08
    8.21              148320             173.574        -3.69098e+06         1.08294e+08
    8.23              148056             173.264        -3.68428e+06         1.08095e+08
    8.25              147791             172.955        -3.67758e+06         1.07896e+08
    8.27              147527             172.645        -3.67088e+06         1.07697e+08
    8.29              147263             172.336        -3.66418e+06         1.07498e+08
    8.31              146998             172.026        -3.65748e+06         1.07299e+08
    8.33              146734             171.717        -3.65078e+06           1.071e+08
    8.35              146469             171.407        -3.64408e+06         1.06901e+08
    8.37              146205             171.097        -3.63737e+06         1.06701e+08
    8.39              145940             170.788        -3.63067e+06         1.06502e+08
    8.41              145675             170.478        -3.62396e+06         1.06303e+08
    8.43              145411             170.169        -3.61726e+06         1.06104e+08
    8.45              145146             169.859        -3.61055e+06         1.05905e+08
    8.47              144881              169.55        -3.60384e+06         1.05706e+08
    8.49              144617              169.24        -3.59714e+06         1.05506e+08
    8.51              144352             168.931        -3.59043e+06         1.05307e+08
    8.53              144087             168.621        -3.58372e+06         1.05108e+08
    8.55              143822             168.312        -3.57702e+06         1.04909e+08
    8.57              143558             168.002        -3.57031e+06          1.0471e+08
    8.59              143293             167.693         -3.5636e+06          1.0451e+08
    8.61              143028             167.383         -3.5569e+06         1.04311e+08
    8.63              142764             167.074        -3.55019e+06         1.04112e+08
    8.65              142499             166.765        -3.54348e+06         1.03913e+08
    8.67              142234             166.456        -3.53678e+06         1.03714e+08
    8.69              141970             166.147        -3.53007e+06         1.03515e+08
    8.71              141705             165.838        -3.52337e+06         1.03316e+08
    8.73              141440             165.529        -3.51666e+06         1.03117e+08
    8.75              141176              165.22        -3.50996e+06         1.02918e+08
    8.77              140911             164.911        -3.50326e+06         1.02719e+08
    8.79              140646             164.602        -3.49656e+06          1.0252e+08
    8.81              140382             164.293        -3.48986e+06         1.02321e+08
    8.83              140117             163.984        -3.48316e+06         1.02122e+08
    8.85              139853             163.676        -3.47646e+06         1.01923e+08
    8.87              139589             163.367        -3.46976e+06         1.01724e+08
    8.89              139324             163.059        -3.46307e+06         1.01526e+08
    8.91              139060             162.751        -3.45637e+06         1.01327e+08
    8.93              138796             162.442        -3.44968e+06         1.01128e+08
    8.95              138531             162.134        -3.44299e+06          1.0093e+08
    8.97              138267             161.826         -3.4363e+06         1.00731e+08
    8.99              138003             161.518        -3.42961e+06         1.00532e+08
    9.01              137739              161.21        -3.42292e+06         1.00334e+08
    9.03              137475             160.903        -3.41624e+06         1.00136e+08
    9.05              137211             160.595        -3.40955e+06         9.99373e+07
    9.07              136947             160.288        -3.40287e+06         9.97391e+07
    9.09              136684              159.98        -3.39619e+06         9.95409e+07
    9.11              136420             159.673        -3.38952e+06         9.93428e+07
    9.13              136156             159.366        -3.38284e+06         9.91447e+07
    9.15              135893             159.059        -3.37617e+06         9.89467e+07
    9.17              135629             158.752         -3.3695e+06         9.87488e+07
    9.19              135366             158.446        -3.36283e+06          9.8551e+07
    9.21              135103             158.139        -3.35616e+06         9.83533e+07
    9.23              134840             157.833         -3.3495e+06         9.81556e+07
    9.25              134577             157.526        -3.34284e+06          9.7958e+07
    9.27              134314              157.22        -3.33618e+06         9.77605e+07
    9.29              134051             156.914        -3.32953e+06         9.75631e+07
    9.31              133788             156.609        -3.32287e+06         9.73658e+07
    9.33              133525             156.303        -3.31623e+06         9.71686e+07
    9.35              133263             155.997        -3.30958e+06         9.69714e+07
    9.37              133000             155.692        -3.30294e+06         9.67744e+07
    9.39              132738             155.387        -3.29629e+06         9.65775e+07
    9.41              132476             155.082        -3.28966e+06         9.63806e+07
    9.43              132214             154.777        -3.28302e+06         9.61839e+07
    9.45              131952             154.473        -3.27639e+06         9.59873e+07
    9.47              131690             154.168        -3.26977e+06         9.57907e+07
    9.49              131428             153.864        -3.26314e+06         9.55943e+07
    9.51              131167              153.56        -3.25652e+06          9.5398e+07
    9.53              130905             153.256         -3.2499e+06         9.52018e+07
    9.55              130644             152.952        -3.24329e+06         9.50058e+07
    9.57              130383             152.649        -3.23668e+06         9.48098e+07
    9.59              130122             152.346        -3.23008e+06          9.4614e+07
    9.61              129861             152.042        -3.22348e+06         9.44183e+07
    9.63              129600              151.74        -3.21688e+06         9.42227e+07
    9.65              129339             151.437        -3.21028e+06         9.40272e+07
    9.67              129079             151.134        -3.20369e+06         9.38319e+07
    9.69              128819             150.832        -3.19711e+06         9.36367e+07
    9.71              128558              150.53        -3.19053e+06         9.34416e+07
    9.73              128299             150.228        -3.18395e+06         9.32467e+07
    9.75              128039             149.927        -3.17738e+06         9.30519e+07
    9.77              127779             149.625        -3.17081e+06         9.28573e+07
    9.79              127520             149.324        -3.16424e+06         9.26627e+07
    9.81              127260             149.023        -3.15768e+06         9.24684e+07
    9.83              127001             148.723        -3.15113e+06         9.22741e+07
    9.85              126742             148.422        -3.14458e+06           9.208e+07
    9.87              126483             148.122        -3.13803e+06         9.18861e+07
    9.89              126225             147.822        -3.13149e+06         9.16923e+07
    9.91              125966             147.523        -3.12496e+06         9.14987e+07
    9.93              125708             147.223        -3.11843e+06         9.13052e+07
    9.95              125450             146.924         -3.1119e+06         9.11119e+07
    9.97              125192             146.625        -3.10538e+06         9.09187e+07
    9.99              124935             146.326        -3.09886e+06         9.07257e+07
   10.01              124677             146.028        -3.09235e+06         9.05328e+07
   10.03              124420              145.73        -3.08585e+06         9.03402e+07
   10.05              124163             145.432        -3.07935e+06         9.01476e+07
   10.07              123906             145.134        -3.07285e+06         8.99553e+07
   10.09              123649             144.837        -3.06636e+06         8.97631e+07
   10.11              123393              144.54        -3.05988e+06         8.95711e+07
   10.13              123137             144.243         -3.0534e+06         8.93793e+07
   10.15              122881             143.946        -3.04693e+06         8.91876e+07
   10.17              122625              143.65        -3.04046e+06         8.89961e+07
   10.19              122369             143.354          -3.034e+06         8.88048e+07
   10.21              122114             143.059        -3.02754e+06         8.86137e+07
   10.23              121859             142.763        -3.02109e+06         8.84228e+07
   10.25              121604             142.468        -3.01465e+06          8.8232e+07
   10.27              121349             142.173        -3.00821e+06         8.80414e+07
   10.29              121094             141.879        -3.00178e+06          8.7851e+07
   10.31              120840             141.585        -2.99536e+06         8.76608e+07
   10.33              120586             141.291        -2.98894e+06         8.74708e+07
   10.35              120332             140.997        -2.98252e+06          8.7281e+07
   10.37              120079             140.704        -2.97612e+06         8.70914e+07
   10.39              119825             140.411        -2.96972e+06          8.6902e+07
   10.41              119572             140.118        -2.96332e+06         8.67128e+07
   10.43              119319             139.826        -2.95693e+06         8.65238e+07
   10.45              119067             139.534        -2.95055e+06          8.6335e+07
   10.47              118815             139.242        -2.94418e+06         8.61463e+07
   10.49              118562             138.951        -2.93781e+06         8.59579e+07
   10.51              118311              138.66        -2.93145e+06         8.57697e+07
   10.53              118059             138.369        -2.92509e+06         8.55817e+07
   10.55              117808             138.078        -2.91875e+06          8.5394e+07
   10.57              117557             137.788        -2.91241e+06         8.52064e+07
   10.59              117306             137.499        -2.90607e+06         8.50191e+07
   10.61              117055             137.209        -2.89974e+06         8.48319e+07
   10.63              116805              136.92        -2.89342e+06          8.4645e+07
   10.65              116555             136.631        -2.88711e+06         8.44583e+07
   10.67              116305             136.343        -2.88081e+06         8.42718e+07
   10.69              116056             136.055        -2.87451e+06         8.40856e+07
   10.71              115807             135.767        -2.86822e+06         8.38995e+07
   10.73              115558              135.48        -2.86193e+06         8.37137e+07
   10.75              115309             135.193        -2.85565e+06         8.35282e+07
   10.77              115061             134.906        -2.84939e+06         8.33428e+07
   10.79              114812              134.62        -2.84312e+06         8.31577e+07
   10.81              114565             134.334        -2.83687e+06         8.29728e+07
   10.83              114317             134.048        -2.83062e+06         8.27882e+07
   10.85              114070             133.763        -2.82438e+06         8.26037e+07
   10.87              113823             133.478        -2.81815e+06         8.24196e+07
   10.89              113576             133.194        -2.81193e+06         8.22356e+07
   10.91              113330              132.91        -2.80571e+06         8.20519e+07
   10.93              113084             132.626         -2.7995e+06         8.18685e+07
   10.95              112838             132.343         -2.7933e+06         8.16853e+07
   10.97              112593              132.06        -2.78711e+06         8.15023e+07
   10.99              112348             131.777        -2.78093e+06         8.13196e+07
   11.01              112103             131.495        -2.77475e+06         8.11371e+07
   11.03              111858             131.213        -2.76858e+06         8.09549e+07
   11.05              111614             130.931        -2.76242e+06         8.07729e+07
   11.07              111370              130.65        -2.75627e+06         8.05912e+07
   11.09              111126              130.37        -2.75013e+06         8.04097e+07
   11.11              110883             130.089        -2.74399e+06         8.02285e+07
   11.13              110640              129.81        -2.73786e+06         8.00475e+07
   11.15              110397              129.53        -2.73174e+06         7.98669e+07
   11.17              110155             129.251        -2.72563e+06         7.96864e+07
   11.19              109913             128.972        -2.71953e+06         7.95062e+07
   11.21              109671             128.694        -2.71344e+06         7.93263e+07
   11.23              109430             128.416        -2.70735e+06         7.91467e+07
   11.25              109189             128.138        -2.70128e+06         7.89673e+07
   11.27              108948             127.861        -2.69521e+06         7.87882e+07
   11.29              108707             127.585        -2.68915e+06         7.86094e+07
   11.31              108467             127.308         -2.6831e+06         7.84308e+07
   11.33              108228             127.032        -2.67706e+06         7.82525e+07
   11.35              107988             126.757        -2.67103e+06         7.80744e+07
   11.37              107749             126.482          -2.665e+06         7.78967e+07
   11.39              107510             126.207        -2.65899e+06         7.77192e+07
   11.41              107272             125.933        -2.65298e+06          7.7542e+07
   11.43              107034             125.659        -2.64699e+06         7.73651e+07
   11.45              106796             125.386          -2.641e+06         7.71884e+07
   11.47              106559             125.113        -2.63502e+06         7.70121e+07
   11.49              106322              124.84        -2.62905e+06          7.6836e+07
   11.51              106085             124.568        -2.62309e+06         7.66602e+07
   11.53              105849             124.297        -2.61714e+06         7.64847e+07
   11.55              105613             124.025         -2.6112e+06         7.63094e+07
   11.57              105377             123.755        -2.60527e+06         7.61345e+07
   11.59              105142             123.484        -2.59935e+06         7.59598e+07
   11.61              104907             123.214        -2.59343e+06         7.57855e+07
   11.63              104672             122.945        -2.58753e+06         7.56114e+07
   11.65              104438             122.676        -2.58163e+06         7.54376e+07
   11.67              104204             122.407        -2.57575e+06         7.52641e+07
   11.69              103970             122.139        -2.56987e+06         7.50909e+07
   11.71              103737             121.871        -2.56401e+06          7.4918e+07
   11.73              103505             121.604        -2.55815e+06         7.47454e+07
   11.75              103272             121.337        -2.55231e+06         7.45731e+07
   11.77              103040             121.071        -2.54647e+06         7.44011e+07
   11.79              102808             120.805        -2.54064e+06         7.42294e+07
   11.81              102577             120.539        -2.53482e+06          7.4058e+07
   11.83              102346             120.274        -2.52902e+06          7.3887e+07
   11.85              102116             120.009        -2.52322e+06         7.37162e+07
   11.87              101885             119.745        -2.51743e+06         7.35457e+07
   11.89              101656             119.482        -2.51165e+06         7.33755e+07
   11.91              101426             119.218        -2.50589e+06         7.32056e+07
   11.93              101197             118.956        -2.50013e+06         7.30361e+07
   11.95              100968             118.693        -2.49438e+06         7.28668e+07
   11.97              100740             118.432        -2.48864e+06         7.26979e+07
   11.99              100512              118.17        -2.48292e+06         7.25292e+07
   12.01              100285             117.909         -2.4772e+06         7.23609e+07
   12.03              100057             117.649        -2.47149e+06         7.21929e+07
   12.05             99830.7             117.389         -2.4658e+06         7.20252e+07
   12.07             99604.3             117.129        -2.46011e+06         7.18579e+07
   12.09             99378.3              116.87        -2.45444e+06         7.16908e+07
   12.11             99152.7             116.612        -2.44877e+06         7.15241e+07
   12.13             98927.5             116.354        -2.44311e+06         7.13577e+07
   12.15             98702.7             116.096        -2.43747e+06         7.11916e+07
   12.17             98478.3             115.839        -2.43184e+06         7.10258e+07
   12.19             98254.3             115.582        -2.42621e+06         7.08603e+07
   12.21             98030.6             115.326         -2.4206e+06         7.06952e+07
   12.23             97807.4             115.071          -2.415e+06         7.05304e+07
   12.25             97584.6             114.815         -2.4094e+06         7.03659e+07
   12.27             97362.1             114.561        -2.40382e+06         7.02018e+07
   12.29             97140.1             114.306        -2.39825e+06         7.00379e+07
   12.31             96918.5             114.053        -2.39269e+06         6.98744e+07
   12.33             96697.2             113.799        -2.38714e+06         6.97113e+07
   12.35             96476.4             113.547         -2.3816e+06         6.95484e+07
   12.37               96256             113.294        -2.37607e+06         6.93859e+07
   12.39               96036             113.042        -2.37056e+06         6.92238e+07
   12.41             95816.4             112.791        -2.36505e+06         6.90619e+07
   12.43             95597.2              112.54        -2.35956e+06         6.89004e+07
   12.45             95378.4              112.29        -2.35407e+06         6.87392e+07
   12.47               95160              112.04         -2.3486e+06         6.85784e+07
   12.49               94942             111.791        -2.34313e+06         6.84179e+07
   12.51             94724.5             111.542        -2.33768e+06         6.82577e+07
   12.53             94507.3             111.294        -2.33224e+06         6.80979e+07
   12.55             94290.6             111.046        -2.32681e+06         6.79384e+07
   12.57             94074.3             110.798        -2.32139e+06         6.77793e+07
   12.59             93858.4             110.551        -2.31598e+06         6.76205e+07
   12.61             93642.9             110.305        -2.31059e+06          6.7462e+07
   12.63             93427.9             110.059         -2.3052e+06         6.73039e+07
   12.65             93213.2             109.814        -2.29983e+06         6.71461e+07
   12.67               92999             109.569        -2.29447e+06         6.69886e+07
   12.69             92785.2             109.325        -2.28911e+06         6.68316e+07
   12.71             92571.9             109.081        -2.28377e+06         6.66748e+07
   12.73             92358.9             108.838        -2.27844e+06         6.65184e+07
   12.75             92146.4             108.595        -2.27313e+06         6.63623e+07
   12.77             91934.3             108.352        -2.26782e+06         6.62066e+07
   12.79             91722.6             108.111        -2.26252e+06         6.60513e+07
   12.81             91511.4             107.869        -2.25724e+06         6.58963e+07
   12.83             91300.5             107.629        -2.25197e+06         6.57416e+07
   12.85             91090.1             107.388         -2.2467e+06         6.55873e+07
   12.87             90880.2             107.148        -2.24145e+06         6.54333e+07
   12.89             90670.7             106.909        -2.23622e+06         6.52797e+07
   12.91             90461.6              106.67        -2.23099e+06         6.51265e+07
   12.93             90252.9             106.432        -2.22577e+06         6.49735e+07
   12.95             90044.6             106.195        -2.22057e+06          6.4821e+07
   12.97             89836.8             105.957        -2.21538e+06         6.46688e+07
   12.99             89629.5             105.721         -2.2102e+06          6.4517e+07
   13.01             89422.5             105.485        -2.20503e+06         6.43655e+07
   13.03               89216             105.249        -2.19987e+06         6.42143e+07
   13.05               89010             105.014        -2.19472e+06         6.40636e+07
   13.07             88804.4             104.779        -2.18959e+06         6.39131e+07
   13.09             88599.2             104.545        -2.18446e+06         6.37631e+07
   13.11             88394.4             104.312        -2.17935e+06         6.36134e+07
   13.13             88190.1             104.078        -2.17425e+06          6.3464e+07
   13.15             87986.2             103.846        -2.16917e+06          6.3315e+07
   13.17             87782.8             103.614        -2.16409e+06         6.31664e+07
   13.19             87579.8             103.382        -2.15903e+06         6.30182e+07
   13.21             87377.3             103.152        -2.15397e+06         6.28703e+07
   13.23             87175.2             102.921        -2.14893e+06         6.27227e+07
   13.25             86973.5             102.691         -2.1439e+06         6.25755e+07
   13.27             86772.3             102.462        -2.13888e+06         6.24287e+07
   13.29             86571.5             102.233        -2.13388e+06         6.22823e+07
   13.31             86371.2             102.005        -2.12889e+06         6.21362e+07
   13.33             86171.3             101.777         -2.1239e+06         6.19904e+07
   13.35             85971.8              101.55        -2.11893e+06         6.18451e+07
   13.37             85772.8             101.323        -2.11398e+06         6.17001e+07
   13.39             85574.3             101.097        -2.10903e+06         6.15555e+07
   13.41             85376.2             100.871         -2.1041e+06         6.14112e+07
   13.43             85178.5             100.646        -2.09917e+06         6.12673e+07
   13.45             84981.3             100.421        -2.09426e+06         6.11238e+07
   13.47             84784.5             100.197        -2.08936e+06         6.09806e+07
   13.49             84588.2             99.9735        -2.08448e+06         6.08378e+07
   13.51             84392.4             99.7505         -2.0796e+06         6.06954e+07
   13.53               84197              99.528        -2.07474e+06         6.05533e+07
   13.55               84002              99.306        -2.06989e+06         6.04116e+07
   13.57             83807.5             99.0845        -2.06505e+06         6.02703e+07
   13.59             83613.4             98.8636        -2.06023e+06         6.01293e+07
   13.61             83419.8             98.6432        -2.05541e+06         5.99888e+07
   13.63             83226.7             98.4234        -2.05061e+06         5.98485e+07
   13.65               83034             98.2041        -2.04582e+06         5.97087e+07
   13.67             82841.7             97.9853        -2.04104e+06         5.95692e+07
   13.69             82649.9             97.7671        -2.03627e+06         5.94301e+07
   13.71             82458.6             97.5493        -2.03152e+06         5.92914e+07
   13.73             82267.7             97.3322        -2.02678e+06          5.9153e+07
   13.75             82077.3             97.1155        -2.02205e+06          5.9015e+07
   13.77             81887.3             96.8994        -2.01733e+06         5.88774e+07
   13.79             81697.7             96.6838        -2.01263e+06         5.87402e+07
   13.81             81508.7             96.4688        -2.00793e+06         5.86033e+07
   13.83             81320.1             96.2543        -2.00325e+06         5.84668e+07
   13.85             81131.9             96.0403        -1.99858e+06         5.83307e+07
   13.87             80944.2             95.8269        -1.99392e+06         5.81949e+07
   13.89             80756.9              95.614        -1.98928e+06         5.80596e+07
   13.91             80570.1             95.4016        -1.98465e+06         5.79245e+07
   13.93             80383.8             95.1898        -1.98003e+06         5.77899e+07
   13.95             80197.9             94.9785        -1.97542e+06         5.76557e+07
   13.97             80012.5             94.7677        -1.97082e+06         5.75218e+07
   13.99             79827.5             94.5575        -1.96624e+06         5.73883e+07
   14.01               79643             94.3478        -1.96167e+06         5.72551e+07
   14.03               79459             94.1387        -1.95711e+06         5.71224e+07
   14.05             79275.4             93.9301        -1.95256e+06           5.699e+07
   14.07             79092.3              93.722        -1.94803e+06          5.6858e+07
   14.09             78909.6             93.5144         -1.9435e+06         5.67264e+07
   14.11             78727.4             93.3074        -1.93899e+06         5.65951e+07
   14.13             78545.6              93.101        -1.93449e+06         5.64642e+07
   14.15             78364.3              92.895        -1.93001e+06         5.63337e+07
   14.17             78183.5             92.6896        -1.92554e+06         5.62036e+07
   14.19             78003.1             92.4848        -1.92107e+06         5.60739e+07
   14.21             77823.1             92.2805        -1.91662e+06         5.59445e+07
   14.23             77643.7             92.0767        -1.91219e+06         5.58155e+07
   14.25             77464.7             91.8734        -1.90776e+06         5.56869e+07
   14.27             77286.1             91.6707        -1.90335e+06         5.55586e+07
   14.29               77108             91.4685        -1.89895e+06         5.54308e+07
   14.31             76930.4             91.2669        -1.89456e+06         5.53033e+07
   14.33             76753.2             91.0658        -1.89019e+06         5.51761e+07
   14.35             76576.5             90.8652        -1.88582e+06         5.50494e+07
   14.37             76400.3             90.6652        -1.88147e+06          5.4923e+07
   14.39             76224.5             90.4657        -1.87713e+06         5.47971e+07
   14.41             76049.1             90.2667        -1.87281e+06         5.46714e+07
   14.43             75874.2             90.0683        -1.86849e+06         5.45462e+07
   14.45             75699.8             89.8704        -1.86419e+06         5.44214e+07
   14.47             75525.9              89.673         -1.8599e+06         5.42969e+07
   14.49             75352.4             89.4762        -1.85562e+06         5.41728e+07
   14.51             75179.3             89.2799        -1.85136e+06          5.4049e+07
   14.53             75006.7             89.0841         -1.8471e+06         5.39257e+07
   14.55             74834.6             88.8889        -1.84286e+06         5.38027e+07
   14.57             74662.9             88.6942        -1.83864e+06         5.36801e+07
   14.59             74491.7             88.5001        -1.83442e+06         5.35579e+07
   14.61               74321             88.3065        -1.83022e+06         5.34361e+07
   14.63             74150.7             88.1134        -1.82602e+06         5.33146e+07
   14.65             73980.9             87.9208        -1.82184e+06         5.31935e+07
   14.67             73811.5             87.7288        -1.81768e+06         5.30728e+07
   14.69             73642.6             87.5373        -1.81352e+06         5.29524e+07
   14.71             73474.1             87.3463        -1.80938e+06         5.28325e+07
   14.73             73306.1             87.1559        -1.80525e+06         5.27129e+07
   14.75             73138.6              86.966        -1.80113e+06         5.25937e+07
   14.77             72971.5             86.7766        -1.79703e+06         5.24748e+07
   14.79             72804.8             86.5878        -1.79293e+06         5.23564e+07
   14.81             72638.7             86.3995        -1.78885e+06         5.22383e+07
   14.83             72472.9             86.2117        -1.78478e+06         5.21206e+07
   14.85             72307.7             86.0245        -1.78072e+06         5.20033e+07
   14.87             72142.9             85.8378        -1.77668e+06         5.18863e+07
   14.89             71978.5             85.6516        -1.77265e+06         5.17697e+07
   14.91             71814.6             85.4659        -1.76863e+06         5.16535e+07
   14.93             71651.2             85.2808        -1.76462e+06         5.15377e+07
   14.95             71488.2             85.0962        -1.76062e+06         5.14222e+07
   14.97             71325.7             84.9121        -1.75664e+06         5.13071e+07
   14.99             71163.6             84.7285        -1.75267e+06         5.11924e+07
   15.01               71002             84.5455        -1.74871e+06          5.1078e+07
   15.03             70840.8              84.363        -1.74476e+06         5.09641e+07
   15.05             70680.1              84.181        -1.74082e+06         5.08505e+07
   15.07             70519.8             83.9996         -1.7369e+06         5.07372e+07
   15.09               70360             83.8186        -1.73299e+06         5.06244e+07
   15.11             70200.7             83.6382        -1.72909e+06         5.05119e+07
   15.13             70041.8             83.4583         -1.7252e+06         5.03998e+07
   15.15             69883.3              83.279        -1.72133e+06         5.02881e+07
   15.17             69725.3             83.1001        -1.71747e+06         5.01767e+07
   15.19             69567.8             82.9218        -1.71362e+06         5.00657e+07
   15.21             69410.7              82.744        -1.70978e+06         4.99551e+07
   15.23               69254             82.5668        -1.70595e+06         4.98448e+07
   15.25             69097.9               82.39        -1.70214e+06         4.97349e+07
   15.27             68942.1             82.2138        -1.69833e+06         4.96254e+07
   15.29             68786.8              82.038        -1.69454e+06         4.95163e+07
   15.31               68632             81.8628        -1.69077e+06         4.94075e+07
   15.33             68477.6             81.6882          -1.687e+06         4.92991e+07
   15.35             68323.6              81.514        -1.68325e+06         4.91911e+07
   15.37             68170.1             81.3403         -1.6795e+06         4.90834e+07
   15.39             68017.1             81.1672        -1.67577e+06         4.89761e+07
   15.41             67864.4             80.9946        -1.67205e+06         4.88692e+07
   15.43             67712.3             80.8225        -1.66835e+06         4.87626e+07
   15.45             67560.6             80.6509        -1.66465e+06         4.86564e+07
   15.47             67409.3             80.4798        -1.66097e+06         4.85506e+07
   15.49             67258.5             80.3092         -1.6573e+06         4.84451e+07
   15.51             67108.1             80.1392        -1.65364e+06           4.834e+07
   15.53             66958.1             79.9696           -1.65e+06         4.82353e+07
   15.55             66808.6             79.8006        -1.64636e+06         4.81309e+07
   15.57             66659.6             79.6321        -1.64274e+06         4.80269e+07
   15.59               66511              79.464        -1.63913e+06         4.79232e+07
   15.61             66362.8             79.2965        -1.63553e+06         4.78199e+07
   15.63             66215.1             79.1295        -1.63194e+06          4.7717e+07
   15.65             66067.8              78.963        -1.62836e+06         4.76145e+07
   15.67             65920.9              78.797         -1.6248e+06         4.75123e+07
   15.69             65774.5             78.6316        -1.62125e+06         4.74104e+07
   15.71             65628.6             78.4666        -1.61771e+06          4.7309e+07
   15.73               65483             78.3021        -1.61418e+06         4.72079e+07
   15.75             65337.9             78.1381        -1.61066e+06         4.71071e+07
   15.77             65193.3             77.9746        -1.60716e+06         4.70067e+07
   15.79             65049.1             77.8117        -1.60366e+06         4.69067e+07
   15.81             64905.3             77.6492        -1.60018e+06          4.6807e+07
   15.83             64761.9             77.4872        -1.59671e+06         4.67077e+07
   15.85               64619             77.3257        -1.59325e+06         4.66088e+07
   15.87             64476.5             77.1648        -1.58981e+06         4.65102e+07
   15.89             64334.5             77.0043        -1.58637e+06         4.64119e+07
   15.91             64192.9             76.8443        -1.58295e+06          4.6314e+07
   15.93             64051.7             76.6848        -1.57954e+06         4.62165e+07
   15.95             63910.9             76.5258        -1.57614e+06         4.61193e+07
   15.97             63770.6             76.3673        -1.57275e+06         4.60225e+07
   15.99             63630.7             76.2093        -1.56937e+06         4.59261e+07
   16.01             63491.3             76.0518        -1.56601e+06           4.583e+07
   16.03             63352.2             75.8947        -1.56265e+06         4.57342e+07
   16.05             63213.6             75.7382        -1.55931e+06         4.56388e+07
   16.07             63075.5             75.5821        -1.55598e+06         4.55437e+07
   16.09             62937.7             75.4266        -1.55266e+06          4.5449e+07
   16.11             62800.4             75.2715        -1.54935e+06         4.53547e+07
   16.13             62663.5             75.1169        -1.54605e+06         4.52607e+07
   16.15               62527             74.9628        -1.54277e+06          4.5167e+07
   16.17               62391             74.8092        -1.53949e+06         4.50737e+07
   16.19             62255.4              74.656        -1.53623e+06         4.49808e+07
   16.21             62120.2             74.5034        -1.53298e+06         4.48882e+07
   16.23             61985.4             74.3512        -1.52974e+06         4.47959e+07
   16.25               61851             74.1995        -1.52651e+06          4.4704e+07
   16.27             61717.1             74.0483        -1.52329e+06         4.46124e+07
   16.29             61583.5             73.8975        -1.52009e+06         4.45212e+07
   16.31             61450.4             73.7473        -1.51689e+06         4.44303e+07
   16.33             61317.8             73.5975        -1.51371e+06         4.43398e+07
   16.35             61185.5             73.4482        -1.51053e+06         4.42496e+07
   16.37             61053.6             73.2993        -1.50737e+06         4.41598e+07
   16.39             60922.2              73.151        -1.50422e+06         4.40703e+07
   16.41             60791.2             73.0031        -1.50108e+06         4.39811e+07
   16.43             60660.6             72.8557        -1.49795e+06         4.38923e+07
   16.45             60530.4             72.7087        -1.49484e+06         4.38038e+07
   16.47             60400.6             72.5622        -1.49173e+06         4.37157e+07
   16.49             60271.2             72.4162        -1.48864e+06         4.36279e+07
   16.51             60142.3             72.2707        -1.48555e+06         4.35404e+07
   16.53             60013.7             72.1256        -1.48248e+06         4.34533e+07
   16.55             59885.6              71.981        -1.47942e+06         4.33665e+07
   16.57             59757.9             71.8368        -1.47636e+06           4.328e+07
   16.59             59630.5             71.6931        -1.47332e+06         4.31939e+07
   16.61             59503.6             71.5499         -1.4703e+06         4.31081e+07
   16.63             59377.1             71.4071        -1.46728e+06         4.30227e+07
   16.65               59251             71.2648        -1.46427e+06         4.29376e+07
   16.67             59125.3              71.123        -1.46127e+06         4.28528e+07
   16.69               59000             70.9816        -1.45829e+06         4.27683e+07
   16.71             58875.1             70.8407        -1.45531e+06         4.26842e+07
   16.73             58750.6             70.7002        -1.45235e+06         4.26004e+07
   16.75             58626.5             70.5601        -1.44939e+06          4.2517e+07
   16.77             58502.8             70.4206        -1.44645e+06         4.24338e+07
   16.79             58379.5             70.2814        -1.44352e+06          4.2351e+07
   16.81             58256.6             70.1428         -1.4406e+06         4.22686e+07
   16.83             58134.1             70.0045        -1.43769e+06         4.21864e+07
   16.85               58012             69.8668        -1.43479e+06         4.21046e+07
   16.87             57890.2             69.7294         -1.4319e+06         4.20231e+07
   16.89             57768.9             69.5926        -1.42902e+06         4.19419e+07
   16.91               57648             69.4561        -1.42615e+06         4.18611e+07
   16.93             57527.5             69.3201        -1.42329e+06         4.17805e+07
   16.95             57407.3             69.1846        -1.42044e+06         4.17003e+07
   16.97             57287.6             69.0494         -1.4176e+06         4.16204e+07
   16.99             57168.2             68.9148        -1.41478e+06         4.15409e+07
   17.01             57049.2             68.7805        -1.41196e+06         4.14616e+07
   17.03             56930.6             68.6467        -1.40916e+06         4.13827e+07
   17.05             56812.4             68.5134        -1.40636e+06         4.13041e+07
   17.07             56694.6             68.3804        -1.40357e+06         4.12258e+07
   17.09             56577.2             68.2479         -1.4008e+06         4.11478e+07
   17.11             56460.1             68.1159        -1.39803e+06         4.10702e+07
   17.13             56343.4             67.9843        -1.39528e+06         4.09928e+07
   17.15             56227.2             67.8531        -1.39254e+06         4.09158e+07
   17.17             56111.2             67.7223         -1.3898e+06         4.08391e+07
   17.19             55995.7             67.5919        -1.38708e+06         4.07626e+07
   17.21             55880.6              67.462        -1.38436e+06         4.06866e+07
   17.23             55765.8             67.3325        -1.38166e+06         4.06108e+07
   17.25             55651.4             67.2035        -1.37897e+06         4.05353e+07
   17.27             55537.4             67.0748        -1.37628e+06         4.04601e+07
   17.29             55423.7             66.9466        -1.37361e+06         4.03853e+07
   17.31             55310.5             66.8188        -1.37095e+06         4.03107e+07
   17.33             55197.6             66.6914        -1.36829e+06         4.02365e+07
   17.35               55085             66.5644        -1.36565e+06         4.01625e+07
   17.37             54972.9             66.4379        -1.36302e+06         4.00889e+07
   17.39             54861.1             66.3117        -1.36039e+06         4.00156e+07
   17.41             54749.7              66.186        -1.35778e+06         3.99425e+07
   17.43             54638.6             66.0607        -1.35517e+06         3.98698e+07
   17.45             54527.9             65.9358        -1.35258e+06         3.97974e+07
   17.47             54417.6             65.8113           -1.35e+06         3.97252e+07
   17.49             54307.7             65.6872        -1.34742e+06         3.96534e+07
   17.51             54198.1             65.5635        -1.34486e+06         3.95819e+07
   17.53             54088.8             65.4402         -1.3423e+06         3.95107e+07
   17.55               53980             65.3174        -1.33976e+06         3.94397e+07
   17.57             53871.5             65.1949        -1.33722e+06         3.93691e+07
   17.59             53763.3             65.0729        -1.33469e+06         3.92987e+07
   17.61             53655.5             64.9512        -1.33218e+06         3.92287e+07
   17.63             53548.1             64.8299        -1.32967e+06         3.91589e+07
   17.65               53441             64.7091        -1.32717e+06         3.90895e+07
   17.67             53334.3             64.5886        -1.32468e+06         3.90203e+07
   17.69             53227.9             64.4685         -1.3222e+06         3.89514e+07
   17.71             53121.9             64.3488        -1.31974e+06         3.88828e+07
   17.73             53016.2             64.2296        -1.31728e+06         3.88145e+07
   17.75             52910.9             64.1107        -1.31482e+06         3.87465e+07
   17.77             52805.9             63.9922        -1.31238e+06         3.86787e+07
   17.79             52701.3              63.874        -1.30995e+06         3.86113e+07
   17.81             52597.1             63.7563        -1.30753e+06         3.85441e+07
   17.83             52493.1              63.639        -1.30512e+06         3.84773e+07
   17.85             52389.5              63.522        -1.30271e+06         3.84107e+07
   17.87             52286.3             63.4054        -1.30032e+06         3.83443e+07
   17.89             52183.4             63.2892        -1.29793e+06         3.82783e+07
   17.91             52080.9             63.1734        -1.29555e+06         3.82125e+07
   17.93             51978.6              63.058        -1.29319e+06         3.81471e+07
   17.95             51876.8             62.9429        -1.29083e+06         3.80819e+07
   17.97             51775.2             62.8283        -1.28848e+06          3.8017e+07
   17.99               51674             62.7139        -1.28614e+06         3.79523e+07
   18.01             51573.2                62.6        -1.28381e+06         3.78879e+07
   18.03             51472.6             62.4865        -1.28148e+06         3.78238e+07
   18.05             51372.5             62.3733        -1.27917e+06           3.776e+07
   18.07             51272.6             62.2604        -1.27687e+06         3.76965e+07
   18.09             51173.1              62.148        -1.27457e+06         3.76332e+07
   18.11             51073.9             62.0359        -1.27228e+06         3.75702e+07
   18.13               50975             61.9242           -1.27e+06         3.75074e+07
   18.15             50876.5             61.8128        -1.26773e+06          3.7445e+07
   18.17             50778.2             61.7018        -1.26547e+06         3.73828e+07
   18.19             50680.4             61.5912        -1.26322e+06         3.73208e+07
   18.21             50582.8             61.4809        -1.26098e+06         3.72592e+07
   18.23             50485.5              61.371        -1.25874e+06         3.71978e+07
   18.25             50388.6             61.2615        -1.25652e+06         3.71366e+07
   18.27               50292             61.1523         -1.2543e+06         3.70757e+07
   18.29             50195.8             61.0434        -1.25209e+06         3.70151e+07
   18.31             50099.8             60.9349        -1.24989e+06         3.69548e+07
   18.33             50004.2             60.8268         -1.2477e+06         3.68947e+07
   18.35             49908.8              60.719        -1.24551e+06         3.68348e+07
   18.37             49813.8             60.6116        -1.24334e+06         3.67752e+07
   18.39             49719.1             60.5045        -1.24117e+06         3.67159e+07
   18.41             49624.8             60.3977        -1.23901e+06         3.66568e+07
   18.43             49530.7             60.2913        -1.23686e+06          3.6598e+07
   18.45             49436.9             60.1853        -1.23472e+06         3.65394e+07
   18.47             49343.5             60.0795        -1.23259e+06         3.64811e+07
   18.49             49250.3             59.9742        -1.23046e+06         3.64231e+07
   18.51             49157.5             59.8691        -1.22834e+06         3.63653e+07
   18.53               49065             59.7644        -1.22623e+06         3.63077e+07
   18.55             48972.8               59.66        -1.22413e+06         3.62504e+07
   18.57             48880.9              59.556        -1.22204e+06         3.61933e+07
   18.59             48789.2             59.4523        -1.21995e+06         3.61365e+07
   18.61             48697.9              59.349        -1.21788e+06         3.60799e+07
   18.63             48606.9             59.2459        -1.21581e+06         3.60236e+07
   18.65             48516.2             59.1432        -1.21375e+06         3.59675e+07
   18.67             48425.8             59.0408        -1.21169e+06         3.59117e+07
   18.69             48335.7             58.9388        -1.20965e+06         3.58561e+07
   18.71             48245.9             58.8371        -1.20761e+06         3.58007e+07
   18.73             48156.3             58.7357        -1.20558e+06         3.57456e+07
   18.75             48067.1             58.6346        -1.20356e+06         3.56907e+07
   18.77             47978.2             58.5338        -1.20155e+06         3.56361e+07
   18.79             47889.5             58.4334        -1.19954e+06         3.55817e+07
   18.81             47801.2             58.3333        -1.19754e+06         3.55275e+07
   18.83             47713.1             58.2334        -1.19555e+06         3.54735e+07
   18.85             47625.3              58.134        -1.19357e+06         3.54198e+07
   18.87             47537.8             58.0348        -1.19159e+06         3.53664e+07
   18.89             47450.6             57.9359        -1.18962e+06         3.53131e+07
   18.91             47363.7             57.8374        -1.18766e+06         3.52601e+07
   18.93               47277             57.7391        -1.18571e+06         3.52073e+07
   18.95             47190.7             57.6412        -1.18376e+06         3.51548e+07
   18.97             47104.6             57.5436        -1.18182e+06         3.51024e+07
   18.99             47018.8             57.4462        -1.17989e+06         3.50503e+07
   19.01             46933.3             57.3492        -1.17797e+06         3.49984e+07
   19.03               46848             57.2525        -1.17605e+06         3.49468e+07
   19.05               46763             57.1561        -1.17414e+06         3.48953e+07
   19.07             46678.3               57.06        -1.17224e+06         3.48441e+07
   19.09             46593.9             56.9642        -1.17035e+06         3.47931e+07
   19.11             46509.8             56.8686        -1.16846e+06         3.47424e+07
   19.13             46425.9             56.7734        -1.16658e+06         3.46918e+07
   19.15             46342.3             56.6785        -1.16471e+06         3.46415e+07
   19.17             46258.9             56.5839        -1.16284e+06         3.45914e+07
   19.19             46175.9             56.4895        -1.16098e+06         3.45415e+07
   19.21             46093.1             56.3955        -1.15913e+06         3.44918e+07
   19.23             46010.5             56.3017        -1.15728e+06         3.44423e+07
   19.25             45928.2             56.2082        -1.15545e+06          3.4393e+07
   19.27             45846.2              56.115        -1.15361e+06          3.4344e+07
   19.29             45764.5             56.0221        -1.15179e+06         3.42951e+07
   19.31               45683             55.9295        -1.14997e+06         3.42465e+07
   19.33             45601.7             55.8372        -1.14816e+06         3.41981e+07
   19.35             45520.8             55.7451        -1.14636e+06         3.41498e+07
   19.37               45440             55.6533        -1.14456e+06         3.41018e+07
   19.39             45359.6             55.5618        -1.14277e+06          3.4054e+07
   19.41             45279.4             55.4706        -1.14099e+06         3.40064e+07
   19.43             45199.4             55.3797        -1.13921e+06          3.3959e+07
   19.45             45119.7              55.289        -1.13744e+06         3.39118e+07
   19.47             45040.3             55.1986        -1.13568e+06         3.38648e+07
   19.49             44961.1             55.1085        -1.13392e+06          3.3818e+07
   19.51             44882.1             55.0186        -1.13217e+06         3.37714e+07
   19.53             44803.4              54.929        -1.13042e+06          3.3725e+07
   19.55             44724.9             54.8397        -1.12869e+06         3.36788e+07
   19.57             44646.7             54.7506        -1.12695e+06         3.36328e+07
   19.59             44568.7             54.6618        -1.12523e+06          3.3587e+07
   19.61               44491             54.5733        -1.12351e+06         3.35414e+07
   19.63             44413.5              54.485         -1.1218e+06         3.34959e+07
   19.65             44336.3              54.397        -1.12009e+06         3.34507e+07
   19.67             44259.3             54.3093        -1.11839e+06         3.34057e+07
   19.69             44182.5             54.2218         -1.1167e+06         3.33608e+07
   19.71               44106             54.1345        -1.11501e+06         3.33161e+07
   19.73             44029.7             54.0475        -1.11333e+06         3.32716e+07
   19.75             43953.6             53.9608        -1.11166e+06         3.32273e+07
   19.77             43877.8             53.8743        -1.10999e+06         3.31832e+07
   19.79             43802.2             53.7881        -1.10832e+06         3.31393e+07
   19.81             43726.8             53.7021        -1.10667e+06         3.30956e+07
   19.83             43651.7             53.6164        -1.10502e+06          3.3052e+07
   19.85             43576.8             53.5309        -1.10337e+06         3.30086e+07
   19.87             43502.1             53.4457        -1.10173e+06         3.29654e+07
   19.89             43427.7             53.3607         -1.1001e+06         3.29224e+07
   19.91             43353.4              53.276        -1.09847e+06         3.28796e+07
   19.93             43279.4             53.1915        -1.09685e+06         3.28369e+07
   19.95             43205.6             53.1072        -1.09523e+06         3.27944e+07
   19.97             43132.1             53.0232        -1.09362e+06         3.27521e+07
   19.99             43058.7             52.9394        -1.09202e+06         3.27099e+07
