## w(eV)         sigma(Sm^-1)     kappa(W(mK)^-1)        L12/e(Am^-1)      L22/e^2(Wm^-1)
    0.01              538193             858.543         -1.1068e+07         3.08948e+08
    0.03              538188             858.533         -1.1068e+07         3.08946e+08
    0.05              538179             858.512        -1.10678e+07         3.08943e+08
    0.07              538165              858.48        -1.10676e+07         3.08937e+08
    0.09              538147             858.438        -1.10674e+07         3.08931e+08
    0.11              538125             858.386        -1.10671e+07         3.08922e+08
    0.13              538098             858.323        -1.10667e+07         3.08912e+08
    0.15              538066              858.25        -1.10662e+07         3.08899e+08
    0.17              538030             858.166        -1.10657e+07         3.08886e+08
    0.19              537989             858.071        -1.10651e+07          3.0887e+08
    0.21              537944             857.966        -1.10645e+07         3.08853e+08
    0.23              537895             857.851        -1.10638e+07         3.08834e+08
    0.25              537840             857.725         -1.1063e+07         3.08813e+08
    0.27              537782             857.589        -1.10622e+07         3.08791e+08
    0.29              537719             857.442        -1.10613e+07         3.08767e+08
    0.31              537651             857.285        -1.10603e+07         3.08741e+08
    0.33              537579             857.118        -1.10593e+07         3.08713e+08
    0.35              537502              856.94        -1.10582e+07         3.08684e+08
    0.37              537421             856.751         -1.1057e+07         3.08653e+08
    0.39              537335             856.552        -1.10558e+07          3.0862e+08
    0.41              537245             856.343        -1.10545e+07         3.08586e+08
    0.43              537150             856.123        -1.10532e+07         3.08549e+08
    0.45              537051             855.893        -1.10518e+07         3.08511e+08
    0.47              536947             855.653        -1.10503e+07         3.08472e+08
    0.49              536839             855.402        -1.10488e+07          3.0843e+08
    0.51              536726             855.141        -1.10472e+07         3.08387e+08
    0.53              536609              854.87        -1.10455e+07         3.08342e+08
    0.55              536487             854.588        -1.10437e+07         3.08296e+08
    0.57              536361             854.296        -1.10419e+07         3.08248e+08
    0.59              536230             853.993        -1.10401e+07         3.08198e+08
    0.61              536095              853.68        -1.10382e+07         3.08146e+08
    0.63              535956             853.357        -1.10362e+07         3.08092e+08
    0.65              535811             853.024        -1.10341e+07         3.08037e+08
    0.67              535663              852.68         -1.1032e+07          3.0798e+08
    0.69              535510             852.326        -1.10298e+07         3.07922e+08
    0.71              535352             851.962        -1.10275e+07         3.07861e+08
    0.73              535190             851.588        -1.10252e+07         3.07799e+08
    0.75              535023             851.204        -1.10228e+07         3.07735e+08
    0.77              534852             850.809        -1.10204e+07          3.0767e+08
    0.79              534677             850.404        -1.10179e+07         3.07602e+08
    0.81              534497             849.989        -1.10153e+07         3.07533e+08
    0.83              534312             849.564        -1.10127e+07         3.07463e+08
    0.85              534123             849.129          -1.101e+07          3.0739e+08
    0.87              533930             848.684        -1.10072e+07         3.07316e+08
    0.89              533732             848.229        -1.10044e+07          3.0724e+08
    0.91              533530             847.763        -1.10015e+07         3.07162e+08
    0.93              533323             847.288        -1.09985e+07         3.07083e+08
    0.95              533111             846.802        -1.09955e+07         3.07002e+08
    0.97              532896             846.307        -1.09924e+07         3.06919e+08
    0.99              532676             845.801        -1.09892e+07         3.06834e+08
    1.01              532451             845.286         -1.0986e+07         3.06748e+08
    1.03              532222             844.761        -1.09827e+07          3.0666e+08
    1.05              531988             844.226        -1.09793e+07          3.0657e+08
    1.07              531750             843.681        -1.09759e+07         3.06478e+08
    1.09              531508             843.126        -1.09724e+07         3.06385e+08
    1.11              531261             842.561        -1.09689e+07          3.0629e+08
    1.13              531010             841.986        -1.09652e+07         3.06193e+08
    1.15              530754             841.402        -1.09616e+07         3.06095e+08
    1.17              530494             840.808        -1.09578e+07         3.05995e+08
    1.19              530230             840.204         -1.0954e+07         3.05893e+08
    1.21              529961              839.59        -1.09501e+07         3.05789e+08
    1.23              529687             838.967        -1.09462e+07         3.05684e+08
    1.25              529409             838.334        -1.09422e+07         3.05577e+08
    1.27              529127             837.692        -1.09381e+07         3.05468e+08
    1.29              528841             837.039        -1.09339e+07         3.05357e+08
    1.31              528550             836.378        -1.09297e+07         3.05245e+08
    1.33              528254             835.706        -1.09254e+07         3.05131e+08
    1.35              527954             835.025        -1.09211e+07         3.05015e+08
    1.37              527650             834.335        -1.09167e+07         3.04897e+08
    1.39              527342             833.635        -1.09122e+07         3.04778e+08
    1.41              527029             832.926        -1.09077e+07         3.04657e+08
    1.43              526711             832.207        -1.09031e+07         3.04534e+08
    1.45              526389             831.479        -1.08984e+07          3.0441e+08
    1.47              526063             830.742        -1.08937e+07         3.04283e+08
    1.49              525733             829.995        -1.08889e+07         3.04155e+08
    1.51              525398             829.239         -1.0884e+07         3.04026e+08
    1.53              525059             828.474        -1.08791e+07         3.03894e+08
    1.55              524715             827.699        -1.08741e+07         3.03761e+08
    1.57              524367             826.916         -1.0869e+07         3.03626e+08
    1.59              524015             826.123        -1.08638e+07         3.03489e+08
    1.61              523658             825.321        -1.08586e+07         3.03351e+08
    1.63              523297              824.51        -1.08534e+07         3.03211e+08
    1.65              522932             823.689         -1.0848e+07         3.03069e+08
    1.67              522563              822.86        -1.08426e+07         3.02925e+08
    1.69              522189             822.022        -1.08372e+07          3.0278e+08
    1.71              521810             821.175        -1.08316e+07         3.02633e+08
    1.73              521428             820.319         -1.0826e+07         3.02484e+08
    1.75              521041             819.454        -1.08204e+07         3.02333e+08
    1.77              520650              818.58        -1.08146e+07         3.02181e+08
    1.79              520254             817.697        -1.08088e+07         3.02027e+08
    1.81              519854             816.806        -1.08029e+07         3.01871e+08
    1.83              519450             815.905         -1.0797e+07         3.01713e+08
    1.85              519042             814.996         -1.0791e+07         3.01554e+08
    1.87              518629             814.079        -1.07849e+07         3.01393e+08
    1.89              518212             813.152        -1.07788e+07          3.0123e+08
    1.91              517791             812.217        -1.07726e+07         3.01065e+08
    1.93              517366             811.274        -1.07663e+07         3.00899e+08
    1.95              516936             810.322        -1.07599e+07         3.00731e+08
    1.97              516502             809.361        -1.07535e+07         3.00561e+08
    1.99              516064             808.392        -1.07471e+07         3.00389e+08
    2.01              515621             807.415        -1.07405e+07         3.00216e+08
    2.03              515175             806.429        -1.07339e+07         3.00041e+08
    2.05              514724             805.435        -1.07272e+07         2.99864e+08
    2.07              514269             804.433        -1.07205e+07         2.99685e+08
    2.09              513809             803.422        -1.07136e+07         2.99505e+08
    2.11              513346             802.403        -1.07068e+07         2.99323e+08
    2.13              512878             801.376        -1.06998e+07         2.99139e+08
    2.15              512406             800.341        -1.06928e+07         2.98953e+08
    2.17              511930             799.297        -1.06857e+07         2.98766e+08
    2.19              511449             798.246        -1.06785e+07         2.98577e+08
    2.21              510965             797.187        -1.06713e+07         2.98386e+08
    2.23              510476             796.119         -1.0664e+07         2.98193e+08
    2.25              509983             795.044        -1.06566e+07         2.97999e+08
    2.27              509486             793.961        -1.06492e+07         2.97803e+08
    2.29              508985             792.869        -1.06417e+07         2.97605e+08
    2.31              508480             791.771        -1.06341e+07         2.97405e+08
    2.33              507970             790.664        -1.06265e+07         2.97204e+08
    2.35              507456             789.549        -1.06188e+07            2.97e+08
    2.37              506939             788.427         -1.0611e+07         2.96796e+08
    2.39              506417             787.298        -1.06032e+07         2.96589e+08
    2.41              505891              786.16        -1.05953e+07          2.9638e+08
    2.43              505361             785.015        -1.05873e+07          2.9617e+08
    2.45              504826             783.863        -1.05792e+07         2.95958e+08
    2.47              504288             782.703        -1.05711e+07         2.95745e+08
    2.49              503746             781.536        -1.05629e+07         2.95529e+08
    2.51              503199             780.361        -1.05547e+07         2.95312e+08
    2.53              502649             779.179        -1.05464e+07         2.95093e+08
    2.55              502094             777.989         -1.0538e+07         2.94872e+08
    2.57              501536             776.793        -1.05295e+07          2.9465e+08
    2.59              500973             775.589         -1.0521e+07         2.94425e+08
    2.61              500406             774.378        -1.05124e+07         2.94199e+08
    2.63              499835              773.16        -1.05037e+07         2.93972e+08
    2.65              499261             771.935         -1.0495e+07         2.93742e+08
    2.67              498682             770.703        -1.04862e+07         2.93511e+08
    2.69              498099             769.463        -1.04773e+07         2.93278e+08
    2.71              497512             768.217        -1.04683e+07         2.93043e+08
    2.73              496921             766.964        -1.04593e+07         2.92806e+08
    2.75              496327             765.704        -1.04502e+07         2.92568e+08
    2.77              495728             764.438        -1.04411e+07         2.92328e+08
    2.79              495125             763.164        -1.04318e+07         2.92086e+08
    2.81              494519             761.884        -1.04225e+07         2.91842e+08
    2.83              493908             760.598        -1.04132e+07         2.91597e+08
    2.85              493293             759.304        -1.04037e+07          2.9135e+08
    2.87              492675             758.004        -1.03942e+07         2.91101e+08
    2.89              492053             756.698        -1.03847e+07          2.9085e+08
    2.91              491426             755.385         -1.0375e+07         2.90598e+08
    2.93              490796             754.066        -1.03653e+07         2.90343e+08
    2.95              490162              752.74        -1.03555e+07         2.90088e+08
    2.97              489524             751.408        -1.03457e+07          2.8983e+08
    2.99              488882              750.07        -1.03358e+07          2.8957e+08
    3.01              488237             748.725        -1.03258e+07         2.89309e+08
    3.03              487587             747.375        -1.03157e+07         2.89046e+08
    3.05              486934             746.018        -1.03056e+07         2.88781e+08
    3.07              486276             744.655        -1.02954e+07         2.88515e+08
    3.09              485615             743.286        -1.02851e+07         2.88246e+08
    3.11              484950             741.911        -1.02747e+07         2.87976e+08
    3.13              484282              740.53        -1.02643e+07         2.87705e+08
    3.15              483609             739.143        -1.02539e+07         2.87431e+08
    3.17              482933              737.75        -1.02433e+07         2.87156e+08
    3.19              482253             736.352        -1.02327e+07         2.86879e+08
    3.21              481569             734.948         -1.0222e+07           2.866e+08
    3.23              480882             733.538        -1.02112e+07         2.86319e+08
    3.25              480190             732.122        -1.02004e+07         2.86037e+08
    3.27              479495             730.701        -1.01895e+07         2.85753e+08
    3.29              478797             729.274        -1.01785e+07         2.85467e+08
    3.31              478094             727.842        -1.01675e+07         2.85179e+08
    3.33              477388             726.404        -1.01564e+07         2.84889e+08
    3.35              476678             724.961        -1.01452e+07         2.84598e+08
    3.37              475965             723.513        -1.01339e+07         2.84305e+08
    3.39              475247             722.059        -1.01226e+07         2.84011e+08
    3.41              474526               720.6        -1.01112e+07         2.83714e+08
    3.43              473802             719.136        -1.00998e+07         2.83416e+08
    3.45              473074             717.666        -1.00882e+07         2.83116e+08
    3.47              472342             716.192        -1.00766e+07         2.82814e+08
    3.49              471607             714.712        -1.00649e+07         2.82511e+08
    3.51              470868             713.227        -1.00532e+07         2.82206e+08
    3.53              470125             711.738        -1.00414e+07         2.81898e+08
    3.55              469379             710.243        -1.00295e+07          2.8159e+08
    3.57              468629             708.744        -1.00176e+07         2.81279e+08
    3.59              467876             707.239        -1.00055e+07         2.80967e+08
    3.61              467119              705.73        -9.99344e+06         2.80653e+08
    3.63              466359             704.217        -9.98128e+06         2.80337e+08
    3.65              465595             702.698        -9.96905e+06          2.8002e+08
    3.67              464828             701.175        -9.95675e+06           2.797e+08
    3.69              464057             699.647        -9.94437e+06         2.79379e+08
    3.71              463283             698.115        -9.93193e+06         2.79057e+08
    3.73              462505             696.579        -9.91942e+06         2.78732e+08
    3.75              461724             695.038        -9.90684e+06         2.78406e+08
    3.77              460939             693.492        -9.89419e+06         2.78078e+08
    3.79              460151             691.942        -9.88147e+06         2.77748e+08
    3.81              459360             690.388        -9.86868e+06         2.77416e+08
    3.83              458565              688.83        -9.85582e+06         2.77083e+08
    3.85              457767             687.267        -9.84289e+06         2.76748e+08
    3.87              456965             685.701        -9.82989e+06         2.76411e+08
    3.89              456160              684.13        -9.81682e+06         2.76073e+08
    3.91              455352             682.555        -9.80369e+06         2.75733e+08
    3.93              454540             680.976        -9.79048e+06         2.75391e+08
    3.95              453725             679.394         -9.7772e+06         2.75047e+08
    3.97              452907             677.807        -9.76386e+06         2.74702e+08
    3.99              452085             676.217        -9.75044e+06         2.74354e+08
    4.01              451260             674.622        -9.73696e+06         2.74006e+08
    4.03              450432             673.024        -9.72341e+06         2.73655e+08
    4.05              449601             671.423        -9.70979e+06         2.73303e+08
    4.07              448766             669.817         -9.6961e+06         2.72948e+08
    4.09              447928             668.208        -9.68234e+06         2.72593e+08
    4.11              447087             666.596        -9.66851e+06         2.72235e+08
    4.13              446243              664.98        -9.65461e+06         2.71876e+08
    4.15              445396              663.36        -9.64065e+06         2.71515e+08
    4.17              444545             661.738        -9.62661e+06         2.71152e+08
    4.19              443692             660.111        -9.61251e+06         2.70788e+08
    4.21              442835             658.482        -9.59834e+06         2.70421e+08
    4.23              441975             656.849         -9.5841e+06         2.70054e+08
    4.25              441112             655.213        -9.56979e+06         2.69684e+08
    4.27              440246             653.574        -9.55542e+06         2.69313e+08
    4.29              439376             651.931        -9.54098e+06          2.6894e+08
    4.31              438504             650.286        -9.52646e+06         2.68565e+08
    4.33              437629             648.638        -9.51189e+06         2.68188e+08
    4.35              436751             646.986        -9.49724e+06          2.6781e+08
    4.37              435869             645.332        -9.48252e+06          2.6743e+08
    4.39              434985             643.675        -9.46774e+06         2.67049e+08
    4.41              434098             642.014        -9.45289e+06         2.66666e+08
    4.43              433207             640.352        -9.43798e+06         2.66281e+08
    4.45              432314             638.686          -9.423e+06         2.65894e+08
    4.47              431418             637.018        -9.40794e+06         2.65506e+08
    4.49              430519             635.347        -9.39283e+06         2.65115e+08
    4.51              429617             633.673        -9.37764e+06         2.64724e+08
    4.53              428712             631.997        -9.36239e+06          2.6433e+08
    4.55              427805             630.318        -9.34708e+06         2.63935e+08
    4.57              426894             628.637        -9.33169e+06         2.63538e+08
    4.59              425981             626.954        -9.31624e+06          2.6314e+08
    4.61              425065             625.268        -9.30073e+06          2.6274e+08
    4.63              424146              623.58        -9.28514e+06         2.62338e+08
    4.65              423224             621.889         -9.2695e+06         2.61935e+08
    4.67              422300             620.196        -9.25378e+06         2.61529e+08
    4.69              421372             618.501          -9.238e+06         2.61123e+08
    4.71              420443             616.804        -9.22216e+06         2.60714e+08
    4.73              419510             615.105        -9.20625e+06         2.60304e+08
    4.75              418575             613.404        -9.19028e+06         2.59892e+08
    4.77              417637             611.701        -9.17424e+06         2.59479e+08
    4.79              416696             609.996        -9.15813e+06         2.59064e+08
    4.81              415753             608.289        -9.14196e+06         2.58647e+08
    4.83              414807              606.58        -9.12573e+06         2.58228e+08
    4.85              413858             604.869        -9.10943e+06         2.57808e+08
    4.87              412907             603.156        -9.09307e+06         2.57387e+08
    4.89              411954             601.442        -9.07665e+06         2.56963e+08
    4.91              410997             599.726        -9.06016e+06         2.56539e+08
    4.93              410039             598.008         -9.0436e+06         2.56112e+08
    4.95              409077             596.289        -9.02699e+06         2.55684e+08
    4.97              408114             594.568        -9.01031e+06         2.55254e+08
    4.99              407148             592.846        -8.99357e+06         2.54823e+08
    5.01              406179             591.122        -8.97676e+06          2.5439e+08
    5.03              405208             589.397         -8.9599e+06         2.53955e+08
    5.05              404235              587.67        -8.94297e+06         2.53519e+08
    5.07              403259             585.942        -8.92598e+06         2.53081e+08
    5.09              402280             584.213        -8.90892e+06         2.52641e+08
    5.11              401300             582.482        -8.89181e+06           2.522e+08
    5.13              400317              580.75        -8.87463e+06         2.51758e+08
    5.15              399332             579.017        -8.85739e+06         2.51314e+08
    5.17              398344             577.283        -8.84009e+06         2.50868e+08
    5.19              397355             575.548        -8.82273e+06          2.5042e+08
    5.21              396362             573.812        -8.80531e+06         2.49971e+08
    5.23              395368             572.075        -8.78783e+06         2.49521e+08
    5.25              394372             570.337        -8.77029e+06         2.49069e+08
    5.27              393373             568.598        -8.75269e+06         2.48615e+08
    5.29              392372             566.858        -8.73503e+06          2.4816e+08
    5.31              391369             565.117        -8.71731e+06         2.47703e+08
    5.33              390364             563.375        -8.69954e+06         2.47245e+08
    5.35              389357             561.633         -8.6817e+06         2.46785e+08
    5.37              388348              559.89         -8.6638e+06         2.46324e+08
    5.39              387336             558.146        -8.64585e+06         2.45861e+08
    5.41              386323             556.402        -8.62783e+06         2.45397e+08
    5.43              385307             554.657        -8.60976e+06         2.44931e+08
    5.45              384290             552.911        -8.59164e+06         2.44463e+08
    5.47              383270             551.165        -8.57345e+06         2.43995e+08
    5.49              382249             549.419        -8.55521e+06         2.43524e+08
    5.51              381226             547.672        -8.53691e+06         2.43052e+08
    5.53              380200             545.925        -8.51856e+06         2.42579e+08
    5.55              379173             544.177        -8.50014e+06         2.42104e+08
    5.57              378144             542.429        -8.48168e+06         2.41628e+08
    5.59              377113             540.681        -8.46316e+06          2.4115e+08
    5.61              376080             538.933        -8.44458e+06          2.4067e+08
    5.63              375046             537.184        -8.42594e+06          2.4019e+08
    5.65              374010             535.435        -8.40726e+06         2.39707e+08
    5.67              372972             533.686        -8.38852e+06         2.39224e+08
    5.69              371932             531.937        -8.36972e+06         2.38739e+08
    5.71              370890             530.188        -8.35087e+06         2.38252e+08
    5.73              369847             528.439        -8.33197e+06         2.37764e+08
    5.75              368802              526.69        -8.31301e+06         2.37275e+08
    5.77              367755             524.941          -8.294e+06         2.36784e+08
    5.79              366707             523.193        -8.27494e+06         2.36292e+08
    5.81              365657             521.444        -8.25583e+06         2.35798e+08
    5.83              364606             519.696        -8.23666e+06         2.35303e+08
    5.85              363553             517.947        -8.21745e+06         2.34807e+08
    5.87              362498             516.199        -8.19818e+06         2.34309e+08
    5.89              361442             514.452        -8.17886e+06          2.3381e+08
    5.91              360385             512.705        -8.15949e+06         2.33309e+08
    5.93              359326             510.958        -8.14007e+06         2.32807e+08
    5.95              358266             509.211         -8.1206e+06         2.32304e+08
    5.97              357204             507.465        -8.10109e+06         2.31799e+08
    5.99              356140              505.72        -8.08152e+06         2.31294e+08
    6.01              355076             503.974         -8.0619e+06         2.30786e+08
    6.03              354010              502.23        -8.04224e+06         2.30278e+08
    6.05              352943             500.486        -8.02253e+06         2.29768e+08
    6.07              351874             498.743        -8.00277e+06         2.29257e+08
    6.09              350804                 497        -7.98297e+06         2.28744e+08
    6.11              349733             495.258        -7.96311e+06          2.2823e+08
    6.13              348661             493.517        -7.94321e+06         2.27715e+08
    6.15              347587             491.777        -7.92327e+06         2.27199e+08
    6.17              346512             490.037        -7.90328e+06         2.26681e+08
    6.19              345436             488.298        -7.88324e+06         2.26162e+08
    6.21              344359             486.561        -7.86316e+06         2.25642e+08
    6.23              343281             484.824        -7.84304e+06         2.25121e+08
    6.25              342202             483.088        -7.82287e+06         2.24598e+08
    6.27              341122             481.353        -7.80266e+06         2.24074e+08
    6.29              340040             479.619         -7.7824e+06         2.23549e+08
    6.31              338958             477.886        -7.76211e+06         2.23023e+08
    6.33              337875             476.154        -7.74177e+06         2.22495e+08
    6.35              336791             474.423        -7.72138e+06         2.21967e+08
    6.37              335705             472.693        -7.70096e+06         2.21437e+08
    6.39              334619             470.965         -7.6805e+06         2.20906e+08
    6.41              333532             469.237        -7.65999e+06         2.20373e+08
    6.43              332444             467.511        -7.63945e+06          2.1984e+08
    6.45              331356             465.787        -7.61886e+06         2.19306e+08
    6.47              330266             464.063        -7.59824e+06          2.1877e+08
    6.49              329176             462.341        -7.57758e+06         2.18233e+08
    6.51              328085             460.621        -7.55687e+06         2.17695e+08
    6.53              326993             458.901        -7.53614e+06         2.17156e+08
    6.55              325901             457.183        -7.51536e+06         2.16616e+08
    6.57              324808             455.467        -7.49455e+06         2.16075e+08
    6.59              323714             453.752         -7.4737e+06         2.15533e+08
    6.61              322619             452.039        -7.45281e+06          2.1499e+08
    6.63              321524             450.327        -7.43189e+06         2.14445e+08
    6.65              320429             448.617        -7.41093e+06           2.139e+08
    6.67              319333             446.908        -7.38994e+06         2.13353e+08
    6.69              318236             445.201        -7.36892e+06         2.12806e+08
    6.71              317139             443.496        -7.34786e+06         2.12257e+08
    6.73              316041             441.792        -7.32676e+06         2.11708e+08
    6.75              314943             440.091        -7.30564e+06         2.11157e+08
    6.77              313845             438.391        -7.28448e+06         2.10606e+08
    6.79              312746             436.693        -7.26329e+06         2.10054e+08
    6.81              311647             434.996        -7.24207e+06           2.095e+08
    6.83              310547             433.302        -7.22082e+06         2.08946e+08
    6.85              309447             431.609        -7.19954e+06         2.08391e+08
    6.87              308347             429.919        -7.17823e+06         2.07834e+08
    6.89              307247              428.23        -7.15689e+06         2.07277e+08
    6.91              306146             426.543        -7.13552e+06         2.06719e+08
    6.93              305045             424.859        -7.11412e+06          2.0616e+08
    6.95              303944             423.176         -7.0927e+06           2.056e+08
    6.97              302843             421.495        -7.07124e+06          2.0504e+08
    6.99              301741             419.817        -7.04976e+06         2.04478e+08
    7.01              300640             418.141        -7.02826e+06         2.03916e+08
    7.03              299538             416.467        -7.00673e+06         2.03353e+08
    7.05              298437             414.795        -6.98517e+06         2.02789e+08
    7.07              297335             413.125        -6.96359e+06         2.02224e+08
    7.09              296234             411.457        -6.94199e+06         2.01658e+08
    7.11              295132             409.792        -6.92036e+06         2.01092e+08
    7.13              294031             408.129        -6.89871e+06         2.00524e+08
    7.15              292929             406.469        -6.87703e+06         1.99956e+08
    7.17              291828              404.81        -6.85534e+06         1.99388e+08
    7.19              290727             403.154        -6.83362e+06         1.98818e+08
    7.21              289626             401.501        -6.81188e+06         1.98248e+08
    7.23              288525              399.85        -6.79013e+06         1.97677e+08
    7.25              287425             398.201        -6.76835e+06         1.97105e+08
    7.27              286324             396.555        -6.74655e+06         1.96533e+08
    7.29              285224             394.912        -6.72474e+06          1.9596e+08
    7.31              284125             393.271         -6.7029e+06         1.95386e+08
    7.33              283025             391.632        -6.68105e+06         1.94812e+08
    7.35              281926             389.997        -6.65918e+06         1.94237e+08
    7.37              280828             388.363         -6.6373e+06         1.93662e+08
    7.39              279730             386.733         -6.6154e+06         1.93085e+08
    7.41              278632             385.105        -6.59348e+06         1.92509e+08
    7.43              277535              383.48        -6.57155e+06         1.91931e+08
    7.45              276438             381.857        -6.54961e+06         1.91353e+08
    7.47              275341             380.238        -6.52765e+06         1.90775e+08
    7.49              274246             378.621        -6.50568e+06         1.90196e+08
    7.51              273151             377.006         -6.4837e+06         1.89616e+08
    7.53              272056             375.395         -6.4617e+06         1.89036e+08
    7.55              270962             373.787         -6.4397e+06         1.88456e+08
    7.57              269869             372.181        -6.41768e+06         1.87875e+08
    7.59              268776             370.578        -6.39565e+06         1.87293e+08
    7.61              267684             368.979        -6.37362e+06         1.86711e+08
    7.63              266593             367.382        -6.35157e+06         1.86129e+08
    7.65              265503             365.788        -6.32952e+06         1.85546e+08
    7.67              264413             364.197        -6.30745e+06         1.84963e+08
    7.69              263325             362.609        -6.28539e+06         1.84379e+08
    7.71              262237             361.025        -6.26331e+06         1.83795e+08
    7.73              261150             359.443        -6.24123e+06          1.8321e+08
    7.75              260064             357.864        -6.21914e+06         1.82626e+08
    7.77              258979             356.289        -6.19705e+06          1.8204e+08
    7.79              257894             354.717        -6.17496e+06         1.81455e+08
    7.81              256811             353.147        -6.15286e+06         1.80869e+08
    7.83              255729             351.581        -6.13076e+06         1.80283e+08
    7.85              254648             350.019        -6.10865e+06         1.79696e+08
    7.87              253567             348.459        -6.08655e+06          1.7911e+08
    7.89              252488             346.903        -6.06444e+06         1.78523e+08
    7.91              251410              345.35        -6.04233e+06         1.77936e+08
    7.93              250334               343.8        -6.02022e+06         1.77348e+08
    7.95              249258             342.254        -5.99812e+06         1.76761e+08
    7.97              248184             340.711        -5.97601e+06         1.76173e+08
    7.99              247110             339.171        -5.95391e+06         1.75585e+08
    8.01              246038             337.635        -5.93181e+06         1.74996e+08
    8.03              244968             336.102        -5.90971e+06         1.74408e+08
    8.05              243898             334.572        -5.88761e+06          1.7382e+08
    8.07              242830             333.046        -5.86552e+06         1.73231e+08
    8.09              241764             331.524        -5.84344e+06         1.72642e+08
    8.11              240698             330.005        -5.82136e+06         1.72053e+08
    8.13              239634             328.489        -5.79928e+06         1.71464e+08
    8.15              238572             326.978        -5.77721e+06         1.70875e+08
    8.17              237511             325.469        -5.75515e+06         1.70286e+08
    8.19              236451             323.964         -5.7331e+06         1.69697e+08
    8.21              235393             322.463        -5.71106e+06         1.69108e+08
    8.23              234337             320.966        -5.68902e+06         1.68519e+08
    8.25              233282             319.472          -5.667e+06          1.6793e+08
    8.27              232229             317.981        -5.64499e+06         1.67341e+08
    8.29              231177             316.495        -5.62298e+06         1.66752e+08
    8.31              230127             315.012        -5.60099e+06         1.66163e+08
    8.33              229078             313.533        -5.57901e+06         1.65574e+08
    8.35              228032             312.057        -5.55704e+06         1.64985e+08
    8.37              226987             310.586        -5.53509e+06         1.64396e+08
    8.39              225943             309.118        -5.51315e+06         1.63808e+08
    8.41              224902             307.654        -5.49123e+06         1.63219e+08
    8.43              223862             306.194        -5.46932e+06         1.62631e+08
    8.45              222824             304.738        -5.44743e+06         1.62043e+08
    8.47              221788             303.285        -5.42555e+06         1.61455e+08
    8.49              220754             301.836        -5.40369e+06         1.60867e+08
    8.51              219722             300.392        -5.38185e+06          1.6028e+08
    8.53              218691             298.951        -5.36002e+06         1.59692e+08
    8.55              217663             297.514        -5.33822e+06         1.59105e+08
    8.57              216636             296.081        -5.31643e+06         1.58518e+08
    8.59              215612             294.652        -5.29467e+06         1.57932e+08
    8.61              214589             293.228        -5.27292e+06         1.57345e+08
    8.63              213569             291.807         -5.2512e+06         1.56759e+08
    8.65              212550              290.39         -5.2295e+06         1.56174e+08
    8.67              211534             288.977        -5.20782e+06         1.55588e+08
    8.69              210520             287.568        -5.18616e+06         1.55004e+08
    8.71              209508             286.164        -5.16453e+06         1.54419e+08
    8.73              208498             284.763        -5.14292e+06         1.53835e+08
    8.75              207490             283.367        -5.12134e+06         1.53251e+08
    8.77              206484             281.975        -5.09979e+06         1.52667e+08
    8.79              205481             280.586        -5.07825e+06         1.52085e+08
    8.81              204480             279.203        -5.05675e+06         1.51502e+08
    8.83              203481             277.823        -5.03527e+06          1.5092e+08
    8.85              202485             276.447        -5.01382e+06         1.50338e+08
    8.87              201490             275.076         -4.9924e+06         1.49757e+08
    8.89              200499             273.709        -4.97101e+06         1.49177e+08
    8.91              199509             272.346        -4.94965e+06         1.48597e+08
    8.93              198522             270.988        -4.92832e+06         1.48017e+08
    8.95              197537             269.634        -4.90702e+06         1.47438e+08
    8.97              196555             268.284        -4.88575e+06          1.4686e+08
    8.99              195575             266.938        -4.86451e+06         1.46282e+08
    9.01              194598             265.597         -4.8433e+06         1.45705e+08
    9.03              193623              264.26        -4.82213e+06         1.45128e+08
    9.05              192651             262.928        -4.80099e+06         1.44552e+08
    9.07              191681               261.6        -4.77989e+06         1.43977e+08
    9.09              190713             260.276        -4.75882e+06         1.43402e+08
    9.11              189749             258.957        -4.73779e+06         1.42828e+08
    9.13              188787             257.642        -4.71679e+06         1.42255e+08
    9.15              187827             256.332        -4.69583e+06         1.41682e+08
    9.17              186870             255.026         -4.6749e+06          1.4111e+08
    9.19              185916             253.725        -4.65402e+06         1.40539e+08
    9.21              184965             252.428        -4.63317e+06         1.39969e+08
    9.23              184016             251.135        -4.61236e+06         1.39399e+08
    9.25              183070             249.848        -4.59159e+06         1.38831e+08
    9.27              182127             248.564        -4.57086e+06         1.38263e+08
    9.29              181186             247.286        -4.55017e+06         1.37695e+08
    9.31              180248             246.011        -4.52952e+06         1.37129e+08
    9.33              179313             244.742        -4.50891e+06         1.36564e+08
    9.35              178381             243.477        -4.48834e+06         1.35999e+08
    9.37              177452             242.217        -4.46782e+06         1.35435e+08
    9.39              176525             240.961        -4.44734e+06         1.34872e+08
    9.41              175602              239.71         -4.4269e+06          1.3431e+08
    9.43              174681             238.464        -4.40651e+06         1.33749e+08
    9.45              173763             237.222        -4.38616e+06         1.33189e+08
    9.47              172848             235.985        -4.36586e+06          1.3263e+08
    9.49              171936             234.753         -4.3456e+06         1.32072e+08
    9.51              171027             233.525        -4.32539e+06         1.31514e+08
    9.53              170121             232.302        -4.30523e+06         1.30958e+08
    9.55              169218             231.084        -4.28511e+06         1.30403e+08
    9.57              168318             229.871        -4.26504e+06         1.29849e+08
    9.59              167421             228.662        -4.24502e+06         1.29295e+08
    9.61              166527             227.458        -4.22505e+06         1.28743e+08
    9.63              165637             226.259        -4.20512e+06         1.28192e+08
    9.65              164749             225.065        -4.18525e+06         1.27642e+08
    9.67              163864             223.876        -4.16542e+06         1.27093e+08
    9.69              162983             222.691        -4.14565e+06         1.26545e+08
    9.71              162104             221.512        -4.12593e+06         1.25999e+08
    9.73              161229             220.337        -4.10626e+06         1.25453e+08
    9.75              160357             219.167        -4.08664e+06         1.24909e+08
    9.77              159488             218.002        -4.06708e+06         1.24366e+08
    9.79              158622             216.841        -4.04756e+06         1.23823e+08
    9.81              157760             215.686         -4.0281e+06         1.23283e+08
    9.83              156901             214.536         -4.0087e+06         1.22743e+08
    9.85              156045              213.39        -3.98935e+06         1.22204e+08
    9.87              155192              212.25        -3.97005e+06         1.21667e+08
    9.89              154342             211.114        -3.95081e+06         1.21131e+08
    9.91              153496             209.983        -3.93162e+06         1.20596e+08
    9.93              152653             208.858        -3.91249e+06         1.20063e+08
    9.95              151813             207.737        -3.89342e+06          1.1953e+08
    9.97              150977             206.621        -3.87441e+06            1.19e+08
    9.99              150144             205.511        -3.85545e+06          1.1847e+08
   10.01              149315             204.405        -3.83655e+06         1.17942e+08
   10.03              148488             203.304         -3.8177e+06         1.17415e+08
   10.05              147665             202.209        -3.79892e+06         1.16889e+08
   10.07              146846             201.118         -3.7802e+06         1.16365e+08
   10.09              146030             200.032        -3.76153e+06         1.15842e+08
   10.11              145217             198.952        -3.74293e+06          1.1532e+08
   10.13              144408             197.876        -3.72438e+06           1.148e+08
   10.15              143602             196.806         -3.7059e+06         1.14281e+08
   10.17              142799             195.741        -3.68747e+06         1.13764e+08
   10.19              142000             194.681        -3.66911e+06         1.13248e+08
   10.21              141205             193.626        -3.65081e+06         1.12733e+08
   10.23              140413             192.576        -3.63257e+06          1.1222e+08
   10.25              139624             191.531         -3.6144e+06         1.11709e+08
   10.27              138839             190.491        -3.59629e+06         1.11198e+08
   10.29              138058             189.457        -3.57824e+06          1.1069e+08
   10.31              137280             188.427        -3.56025e+06         1.10183e+08
   10.33              136505             187.403        -3.54233e+06         1.09677e+08
   10.35              135734             186.384        -3.52447e+06         1.09173e+08
   10.37              134967              185.37        -3.50668e+06          1.0867e+08
   10.39              134203             184.361        -3.48895e+06         1.08169e+08
   10.41              133443             183.357        -3.47129e+06          1.0767e+08
   10.43              132686             182.359        -3.45369e+06         1.07172e+08
   10.45              131933             181.366        -3.43616e+06         1.06675e+08
   10.47              131183             180.378        -3.41869e+06          1.0618e+08
   10.49              130437             179.395         -3.4013e+06         1.05687e+08
   10.51              129695             178.417        -3.38397e+06         1.05196e+08
   10.53              128956             177.445         -3.3667e+06         1.04706e+08
   10.55              128221             176.478         -3.3495e+06         1.04217e+08
   10.57              127489             175.516        -3.33238e+06          1.0373e+08
   10.59              126761              174.56        -3.31531e+06         1.03245e+08
   10.61              126037             173.608        -3.29832e+06         1.02762e+08
   10.63              125316             172.662         -3.2814e+06          1.0228e+08
   10.65              124599             171.721        -3.26454e+06           1.018e+08
   10.67              123886             170.786        -3.24776e+06         1.01321e+08
   10.69              123176             169.855        -3.23104e+06         1.00844e+08
   10.71              122470              168.93        -3.21439e+06         1.00369e+08
   10.73              121768              168.01        -3.19782e+06         9.98957e+07
   10.75              121069             167.096        -3.18131e+06         9.94239e+07
   10.77              120374             166.187        -3.16487e+06         9.89539e+07
   10.79              119683             165.283        -3.14851e+06         9.84856e+07
   10.81              118995             164.384        -3.13221e+06         9.80191e+07
   10.83              118311             163.491        -3.11599e+06         9.75542e+07
   10.85              117631             162.603        -3.09983e+06         9.70912e+07
   10.87              116954              161.72        -3.08375e+06         9.66298e+07
   10.89              116282             160.843        -3.06774e+06         9.61703e+07
   10.91              115612             159.971        -3.05181e+06         9.57125e+07
   10.93              114947             159.104        -3.03594e+06         9.52565e+07
   10.95              114285             158.242        -3.02015e+06         9.48023e+07
   10.97              113627             157.386        -3.00443e+06         9.43499e+07
   10.99              112973             156.536        -2.98878e+06         9.38992e+07
   11.01              112322              155.69         -2.9732e+06         9.34504e+07
   11.03              111675              154.85         -2.9577e+06         9.30034e+07
   11.05              111032             154.015        -2.94227e+06         9.25582e+07
   11.07              110393             153.186        -2.92692e+06         9.21149e+07
   11.09              109757             152.362        -2.91163e+06         9.16734e+07
   11.11              109125             151.543        -2.89643e+06         9.12337e+07
   11.13              108497             150.729        -2.88129e+06         9.07959e+07
   11.15              107872             149.921        -2.86623e+06         9.03599e+07
   11.17              107251             149.118        -2.85124e+06         8.99258e+07
   11.19              106634             148.321        -2.83633e+06         8.94935e+07
   11.21              106021             147.529        -2.82149e+06         8.90631e+07
   11.23              105411             146.742        -2.80673e+06         8.86346e+07
   11.25              104805             145.961        -2.79204e+06          8.8208e+07
   11.27              104203             145.185        -2.77743e+06         8.77832e+07
   11.29              103605             144.414        -2.76289e+06         8.73603e+07
   11.31              103010             143.648        -2.74843e+06         8.69394e+07
   11.33              102419             142.888        -2.73404e+06         8.65203e+07
   11.35              101832             142.134        -2.71972e+06         8.61031e+07
   11.37              101248             141.384        -2.70548e+06         8.56879e+07
   11.39              100668              140.64        -2.69132e+06         8.52745e+07
   11.41              100092             139.901        -2.67723e+06         8.48631e+07
   11.43             99519.3             139.168        -2.66322e+06         8.44536e+07
   11.45             98950.5              138.44        -2.64928e+06          8.4046e+07
   11.47             98385.5             137.717        -2.63542e+06         8.36403e+07
   11.49             97824.1                 137        -2.62163e+06         8.32366e+07
   11.51             97266.4             136.288        -2.60792e+06         8.28348e+07
   11.53             96712.4             135.581        -2.59429e+06          8.2435e+07
   11.55             96162.1             134.879        -2.58073e+06         8.20371e+07
   11.57             95615.4             134.183        -2.56724e+06         8.16411e+07
   11.59             95072.5             133.492        -2.55383e+06         8.12471e+07
   11.61             94533.2             132.807         -2.5405e+06          8.0855e+07
   11.63             93997.6             132.126        -2.52725e+06         8.04649e+07
   11.65             93465.7             131.452        -2.51407e+06         8.00768e+07
   11.67             92937.4             130.782        -2.50096e+06         7.96906e+07
   11.69             92412.8             130.117        -2.48793e+06         7.93063e+07
   11.71             91891.8             129.458        -2.47498e+06          7.8924e+07
   11.73             91374.5             128.804         -2.4621e+06         7.85437e+07
   11.75             90860.8             128.156         -2.4493e+06         7.81654e+07
   11.77             90350.7             127.512        -2.43657e+06          7.7789e+07
   11.79             89844.3             126.874        -2.42392e+06         7.74146e+07
   11.81             89341.5             126.242        -2.41135e+06         7.70422e+07
   11.83             88842.3             125.614        -2.39885e+06         7.66717e+07
   11.85             88346.7             124.992        -2.38643e+06         7.63032e+07
   11.87             87854.7             124.374        -2.37408e+06         7.59367e+07
   11.89             87366.3             123.763        -2.36181e+06         7.55722e+07
   11.91             86881.5             123.156        -2.34962e+06         7.52096e+07
   11.93             86400.3             122.554        -2.33749e+06          7.4849e+07
   11.95             85922.7             121.958        -2.32545e+06         7.44904e+07
   11.97             85448.6             121.367        -2.31348e+06         7.41338e+07
   11.99               84978             120.781        -2.30159e+06         7.37791e+07
   12.01               84511               120.2        -2.28977e+06         7.34265e+07
   12.03             84047.6             119.625        -2.27802e+06         7.30758e+07
   12.05             83587.7             119.054        -2.26635e+06         7.27271e+07
   12.07             83131.3             118.489        -2.25476e+06         7.23803e+07
   12.09             82678.4             117.929        -2.24324e+06         7.20356e+07
   12.11               82229             117.373         -2.2318e+06         7.16928e+07
   12.13             81783.1             116.823        -2.22043e+06          7.1352e+07
   12.15             81340.7             116.279        -2.20913e+06         7.10131e+07
   12.17             80901.8             115.739        -2.19791e+06         7.06763e+07
   12.19             80466.3             115.204        -2.18676e+06         7.03414e+07
   12.21             80034.3             114.674        -2.17569e+06         7.00085e+07
   12.23             79605.8              114.15        -2.16469e+06         6.96775e+07
   12.25             79180.7              113.63        -2.15377e+06         6.93486e+07
   12.27               78759             113.115        -2.14292e+06         6.90216e+07
   12.29             78340.7             112.606        -2.13214e+06         6.86965e+07
   12.31             77925.8             112.101        -2.12144e+06         6.83735e+07
   12.33             77514.4             111.602        -2.11081e+06         6.80524e+07
   12.35             77106.3             111.107        -2.10026e+06         6.77332e+07
   12.37             76701.6             110.617        -2.08977e+06          6.7416e+07
   12.39             76300.2             110.133        -2.07936e+06         6.71008e+07
   12.41             75902.2             109.653        -2.06903e+06         6.67875e+07
   12.43             75507.5             109.178        -2.05876e+06         6.64762e+07
   12.45             75116.2             108.708        -2.04857e+06         6.61668e+07
   12.47             74728.2             108.243        -2.03845e+06         6.58594e+07
   12.49             74343.4             107.783         -2.0284e+06         6.55539e+07
   12.51               73962             107.327        -2.01843e+06         6.52503e+07
   12.53             73583.8             106.877        -2.00852e+06         6.49487e+07
   12.55               73209             106.431        -1.99869e+06          6.4649e+07
   12.57             72837.3              105.99        -1.98893e+06         6.43513e+07
   12.59             72468.9             105.554        -1.97924e+06         6.40555e+07
   12.61             72103.8             105.122        -1.96962e+06         6.37616e+07
   12.63             71741.8             104.696        -1.96007e+06         6.34696e+07
   12.65             71383.1             104.274         -1.9506e+06         6.31796e+07
   12.67             71027.5             103.857        -1.94119e+06         6.28914e+07
   12.69             70675.2             103.444        -1.93185e+06         6.26052e+07
   12.71               70326             103.036        -1.92258e+06         6.23209e+07
   12.73             69979.9             102.633        -1.91339e+06         6.20384e+07
   12.75               69637             102.234        -1.90426e+06         6.17579e+07
   12.77             69297.2              101.84         -1.8952e+06         6.14792e+07
   12.79             68960.5             101.451        -1.88621e+06         6.12025e+07
   12.81             68626.9             101.066        -1.87729e+06         6.09276e+07
   12.83             68296.4             100.686        -1.86844e+06         6.06546e+07
   12.85             67968.9              100.31        -1.85966e+06         6.03835e+07
   12.87             67644.5             99.9389        -1.85094e+06         6.01143e+07
   12.89             67323.2             99.5721        -1.84229e+06         5.98469e+07
   12.91             67004.8             99.2098        -1.83371e+06         5.95814e+07
   12.93             66689.5              98.852         -1.8252e+06         5.93177e+07
   12.95             66377.2             98.4985        -1.81675e+06         5.90559e+07
   12.97             66067.8             98.1495        -1.80838e+06         5.87959e+07
   12.99             65761.5             97.8048        -1.80006e+06         5.85377e+07
   13.01               65458             97.4645        -1.79182e+06         5.82814e+07
   13.03             65157.5             97.1285        -1.78364e+06         5.80269e+07
   13.05               64860             96.7969        -1.77552e+06         5.77743e+07
   13.07             64565.3             96.4695        -1.76747e+06         5.75234e+07
   13.09             64273.5             96.1463        -1.75949e+06         5.72744e+07
   13.11             63984.6             95.8274        -1.75157e+06         5.70271e+07
   13.13             63698.6             95.5127        -1.74372e+06         5.67817e+07
   13.15             63415.4             95.2022        -1.73593e+06         5.65381e+07
   13.17               63135             94.8958        -1.72821e+06         5.62962e+07
   13.19             62857.5             94.5936        -1.72054e+06         5.60561e+07
   13.21             62582.7             94.2954        -1.71295e+06         5.58178e+07
   13.23             62310.7             94.0014        -1.70541e+06         5.55812e+07
   13.25             62041.5             93.7114        -1.69794e+06         5.53465e+07
   13.27             61775.1             93.4254        -1.69053e+06         5.51134e+07
   13.29             61511.3             93.1435        -1.68319e+06         5.48821e+07
   13.31             61250.3             92.8655         -1.6759e+06         5.46526e+07
   13.33               60992             92.5914        -1.66868e+06         5.44248e+07
   13.35             60736.4             92.3213        -1.66152e+06         5.41987e+07
   13.37             60483.4             92.0551        -1.65442e+06         5.39743e+07
   13.39             60233.1             91.7927        -1.64738e+06         5.37516e+07
   13.41             59985.5             91.5342         -1.6404e+06         5.35307e+07
   13.43             59740.4             91.2795        -1.63348e+06         5.33114e+07
   13.45               59498             91.0285        -1.62662e+06         5.30938e+07
   13.47             59258.1             90.7814        -1.61982e+06          5.2878e+07
   13.49             59020.9             90.5379        -1.61309e+06         5.26637e+07
   13.51             58786.1             90.2982         -1.6064e+06         5.24512e+07
   13.53             58553.9             90.0621        -1.59978e+06         5.22403e+07
   13.55             58324.3             89.8296        -1.59322e+06         5.20311e+07
   13.57             58097.1             89.6008        -1.58671e+06         5.18235e+07
   13.59             57872.4             89.3755        -1.58027e+06         5.16176e+07
   13.61             57650.2             89.1538        -1.57388e+06         5.14133e+07
   13.63             57430.5             88.9357        -1.56754e+06         5.12106e+07
   13.65             57213.2              88.721        -1.56127e+06         5.10095e+07
   13.67             56998.3             88.5097        -1.55505e+06           5.081e+07
   13.69             56785.8              88.302        -1.54888e+06         5.06121e+07
   13.71             56575.7             88.0976        -1.54277e+06         5.04159e+07
   13.73             56367.9             87.8966        -1.53672e+06         5.02212e+07
   13.75             56162.5             87.6989        -1.53072e+06          5.0028e+07
   13.77             55959.5             87.5045        -1.52478e+06         4.98365e+07
   13.79             55758.8             87.3135        -1.51889e+06         4.96465e+07
   13.81             55560.3             87.1257        -1.51305e+06          4.9458e+07
   13.83             55364.2             86.9411        -1.50727e+06         4.92711e+07
   13.85             55170.3             86.7597        -1.50154e+06         4.90858e+07
   13.87             54978.7             86.5814        -1.49587e+06         4.89019e+07
   13.89             54789.3             86.4063        -1.49025e+06         4.87196e+07
   13.91             54602.1             86.2343        -1.48468e+06         4.85388e+07
   13.93             54417.1             86.0653        -1.47916e+06         4.83595e+07
   13.95             54234.3             85.8994        -1.47369e+06         4.81816e+07
   13.97             54053.6             85.7365        -1.46828e+06         4.80053e+07
   13.99             53875.2             85.5766        -1.46291e+06         4.78304e+07
   14.01             53698.8             85.4196         -1.4576e+06          4.7657e+07
   14.03             53524.5             85.2655        -1.45233e+06         4.74851e+07
   14.05             53352.4             85.1143        -1.44712e+06         4.73146e+07
   14.07             53182.3              84.966        -1.44196e+06         4.71455e+07
   14.09             53014.3             84.8205        -1.43684e+06         4.69779e+07
   14.11             52848.3             84.6778        -1.43178e+06         4.68117e+07
   14.13             52684.4             84.5378        -1.42676e+06         4.66469e+07
   14.15             52522.4             84.4005        -1.42179e+06         4.64835e+07
   14.17             52362.5              84.266        -1.41687e+06         4.63216e+07
   14.19             52204.5             84.1341        -1.41199e+06          4.6161e+07
   14.21             52048.5             84.0048        -1.40717e+06         4.60018e+07
   14.23             51894.4             83.8782        -1.40239e+06         4.58439e+07
   14.25             51742.3             83.7541        -1.39765e+06         4.56874e+07
   14.27               51592             83.6325        -1.39297e+06         4.55323e+07
   14.29             51443.7             83.5135        -1.38832e+06         4.53785e+07
   14.31             51297.2             83.3969        -1.38373e+06         4.52261e+07
   14.33             51152.6             83.2828        -1.37918e+06         4.50749e+07
   14.35             51009.8             83.1711        -1.37467e+06         4.49251e+07
   14.37             50868.8             83.0618        -1.37021e+06         4.47766e+07
   14.39             50729.7             82.9548        -1.36579e+06         4.46294e+07
   14.41             50592.3             82.8502        -1.36141e+06         4.44835e+07
   14.43             50456.7             82.7479        -1.35708e+06         4.43389e+07
   14.45             50322.8             82.6478        -1.35279e+06         4.41955e+07
   14.47             50190.7             82.5499        -1.34855e+06         4.40535e+07
   14.49             50060.3             82.4543        -1.34434e+06         4.39126e+07
   14.51             49931.6             82.3608        -1.34018e+06          4.3773e+07
   14.53             49804.6             82.2694        -1.33606e+06         4.36347e+07
   14.55             49679.3             82.1802        -1.33198e+06         4.34975e+07
   14.57             49555.6             82.0931        -1.32794e+06         4.33616e+07
   14.59             49433.6              82.008        -1.32394e+06         4.32269e+07
   14.61             49313.2             81.9249        -1.31998e+06         4.30934e+07
   14.63             49194.4             81.8438        -1.31607e+06         4.29611e+07
   14.65             49077.1             81.7647        -1.31219e+06           4.283e+07
   14.67             48961.5             81.6875        -1.30835e+06            4.27e+07
   14.69             48847.4             81.6122        -1.30455e+06         4.25713e+07
   14.71             48734.8             81.5388        -1.30078e+06         4.24436e+07
   14.73             48623.8             81.4672        -1.29706e+06         4.23171e+07
   14.75             48514.2             81.3974        -1.29337e+06         4.21918e+07
   14.77             48406.2             81.3295        -1.28972e+06         4.20676e+07
   14.79             48299.6             81.2633        -1.28611e+06         4.19445e+07
   14.81             48194.5             81.1988        -1.28253e+06         4.18225e+07
   14.83             48090.8              81.136        -1.27899e+06         4.17016e+07
   14.85             47988.6             81.0749        -1.27549e+06         4.15818e+07
   14.87             47887.7             81.0154        -1.27202e+06         4.14631e+07
   14.89             47788.3             80.9576        -1.26859e+06         4.13454e+07
   14.91             47690.2             80.9014        -1.26519e+06         4.12289e+07
   14.93             47593.5             80.8467        -1.26183e+06         4.11134e+07
   14.95             47498.1             80.7935         -1.2585e+06         4.09989e+07
   14.97             47404.1             80.7419        -1.25521e+06         4.08855e+07
   14.99             47311.4             80.6917        -1.25195e+06         4.07731e+07
   15.01               47220              80.643        -1.24872e+06         4.06617e+07
   15.03             47129.8             80.5957        -1.24553e+06         4.05514e+07
   15.05               47041             80.5498        -1.24237e+06          4.0442e+07
   15.07             46953.4             80.5053        -1.23924e+06         4.03337e+07
   15.09               46867             80.4622        -1.23614e+06         4.02263e+07
   15.11             46781.8             80.4203        -1.23308e+06         4.01199e+07
   15.13             46697.9             80.3798        -1.23004e+06         4.00145e+07
   15.15             46615.1             80.3405        -1.22704e+06           3.991e+07
   15.17             46533.6             80.3025        -1.22407e+06         3.98065e+07
   15.19             46453.2             80.2657        -1.22113e+06          3.9704e+07
   15.21             46373.9             80.2301        -1.21822e+06         3.96023e+07
   15.23             46295.8             80.1956        -1.21534e+06         3.95016e+07
   15.25             46218.8             80.1624        -1.21249e+06         3.94019e+07
   15.27             46142.9             80.1302        -1.20966e+06          3.9303e+07
   15.29               46068             80.0991        -1.20687e+06          3.9205e+07
   15.31             45994.3             80.0691        -1.20411e+06          3.9108e+07
   15.33             45921.6             80.0401        -1.20137e+06         3.90118e+07
   15.35               45850             80.0122        -1.19866e+06         3.89165e+07
   15.37             45779.4             79.9853        -1.19598e+06          3.8822e+07
   15.39             45709.8             79.9593        -1.19333e+06         3.87285e+07
   15.41             45641.2             79.9343         -1.1907e+06         3.86357e+07
   15.43             45573.6             79.9103         -1.1881e+06         3.85439e+07
   15.45               45507             79.8871        -1.18553e+06         3.84528e+07
   15.47             45441.4             79.8648        -1.18298e+06         3.83626e+07
   15.49             45376.7             79.8434        -1.18046e+06         3.82732e+07
   15.51             45312.9             79.8229        -1.17797e+06         3.81846e+07
   15.53             45250.1             79.8031         -1.1755e+06         3.80968e+07
   15.55             45188.1             79.7842        -1.17305e+06         3.80099e+07
   15.57             45127.1              79.766        -1.17063e+06         3.79237e+07
   15.59             45066.9             79.7486        -1.16824e+06         3.78382e+07
   15.61             45007.6             79.7319        -1.16587e+06         3.77536e+07
   15.63             44949.2             79.7159        -1.16352e+06         3.76697e+07
   15.65             44891.6             79.7007         -1.1612e+06         3.75866e+07
   15.67             44834.8             79.6861         -1.1589e+06         3.75042e+07
   15.69             44778.8             79.6721        -1.15662e+06         3.74226e+07
   15.71             44723.7             79.6588        -1.15437e+06         3.73417e+07
   15.73             44669.3             79.6461        -1.15213e+06         3.72615e+07
   15.75             44615.8             79.6339        -1.14993e+06         3.71821e+07
   15.77             44562.9             79.6224        -1.14774e+06         3.71033e+07
   15.79             44510.9             79.6114        -1.14557e+06         3.70253e+07
   15.81             44459.5             79.6009        -1.14343e+06          3.6948e+07
   15.83             44408.9             79.5909        -1.14131e+06         3.68713e+07
   15.85             44359.1             79.5815         -1.1392e+06         3.67954e+07
   15.87             44309.9             79.5725        -1.13712e+06         3.67201e+07
   15.89             44261.4             79.5639        -1.13506e+06         3.66454e+07
   15.91             44213.6             79.5558        -1.13302e+06         3.65715e+07
   15.93             44166.5             79.5482          -1.131e+06         3.64982e+07
   15.95               44120             79.5409          -1.129e+06         3.64255e+07
   15.97             44074.2              79.534        -1.12702e+06         3.63535e+07
   15.99               44029             79.5275        -1.12506e+06         3.62821e+07
   16.01             43984.4             79.5213        -1.12311e+06         3.62113e+07
   16.03             43940.4             79.5154        -1.12119e+06         3.61412e+07
   16.05               43897             79.5099        -1.11928e+06         3.60716e+07
   16.07             43854.3             79.5047         -1.1174e+06         3.60027e+07
   16.09             43812.1             79.4997        -1.11553e+06         3.59344e+07
   16.11             43770.4              79.495        -1.11368e+06         3.58666e+07
   16.13             43729.3             79.4906        -1.11184e+06         3.57995e+07
   16.15             43688.8             79.4864        -1.11002e+06         3.57329e+07
   16.17             43648.8             79.4824        -1.10822e+06         3.56669e+07
   16.19             43609.3             79.4786        -1.10644e+06         3.56014e+07
   16.21             43570.4              79.475        -1.10467e+06         3.55366e+07
   16.23             43531.9             79.4715        -1.10292e+06         3.54722e+07
   16.25             43493.9             79.4682        -1.10119e+06         3.54085e+07
   16.27             43456.5             79.4651        -1.09947e+06         3.53452e+07
   16.29             43419.5              79.462        -1.09777e+06         3.52825e+07
   16.31             43382.9             79.4591        -1.09608e+06         3.52203e+07
   16.33             43346.8             79.4563        -1.09441e+06         3.51587e+07
   16.35             43311.1             79.4536        -1.09276e+06         3.50975e+07
   16.37             43275.9             79.4509        -1.09112e+06         3.50369e+07
   16.39             43241.1             79.4482        -1.08949e+06         3.49768e+07
   16.41             43206.7             79.4456        -1.08788e+06         3.49171e+07
   16.43             43172.8             79.4431        -1.08628e+06          3.4858e+07
   16.45             43139.2             79.4405         -1.0847e+06         3.47994e+07
   16.47               43106             79.4379        -1.08313e+06         3.47412e+07
   16.49             43073.2             79.4354        -1.08157e+06         3.46835e+07
   16.51             43040.7             79.4327        -1.08003e+06         3.46263e+07
   16.53             43008.6             79.4301         -1.0785e+06         3.45695e+07
   16.55             42976.9             79.4274        -1.07699e+06         3.45132e+07
   16.57             42945.5             79.4246        -1.07548e+06         3.44574e+07
   16.59             42914.4             79.4217        -1.07399e+06          3.4402e+07
   16.61             42883.6             79.4187        -1.07251e+06          3.4347e+07
   16.63             42853.2             79.4157        -1.07105e+06         3.42925e+07
   16.65             42823.1             79.4125         -1.0696e+06         3.42384e+07
   16.67             42793.3             79.4092        -1.06816e+06         3.41847e+07
   16.69             42763.7             79.4057        -1.06673e+06         3.41315e+07
   16.71             42734.5             79.4021        -1.06531e+06         3.40787e+07
   16.73             42705.5             79.3983        -1.06391e+06         3.40263e+07
   16.75             42676.8             79.3943        -1.06251e+06         3.39743e+07
   16.77             42648.4             79.3902        -1.06113e+06         3.39227e+07
   16.79             42620.2             79.3858        -1.05976e+06         3.38714e+07
   16.81             42592.2             79.3813         -1.0584e+06         3.38206e+07
   16.83             42564.5             79.3765        -1.05705e+06         3.37702e+07
   16.85               42537             79.3715        -1.05571e+06         3.37202e+07
   16.87             42509.8             79.3662        -1.05438e+06         3.36705e+07
   16.89             42482.7             79.3607        -1.05306e+06         3.36212e+07
   16.91             42455.9              79.355        -1.05175e+06         3.35723e+07
   16.93             42429.2             79.3489        -1.05045e+06         3.35237e+07
   16.95             42402.8             79.3426        -1.04916e+06         3.34755e+07
   16.97             42376.5              79.336        -1.04788e+06         3.34277e+07
   16.99             42350.4             79.3291        -1.04661e+06         3.33802e+07
   17.01             42324.5             79.3219        -1.04535e+06          3.3333e+07
   17.03             42298.8             79.3143         -1.0441e+06         3.32862e+07
   17.05             42273.2             79.3064        -1.04286e+06         3.32398e+07
   17.07             42247.8             79.2982        -1.04163e+06         3.31936e+07
   17.09             42222.5             79.2897         -1.0404e+06         3.31479e+07
   17.11             42197.4             79.2807        -1.03919e+06         3.31024e+07
   17.13             42172.4             79.2715        -1.03798e+06         3.30572e+07
   17.15             42147.5             79.2618        -1.03678e+06         3.30124e+07
   17.17             42122.7             79.2518        -1.03559e+06         3.29679e+07
   17.19             42098.1             79.2413        -1.03441e+06         3.29237e+07
   17.21             42073.6             79.2305        -1.03324e+06         3.28798e+07
   17.23             42049.2             79.2193        -1.03207e+06         3.28362e+07
   17.25             42024.9             79.2076        -1.03091e+06         3.27929e+07
   17.27             42000.7             79.1955        -1.02976e+06         3.27499e+07
   17.29             41976.5              79.183        -1.02862e+06         3.27072e+07
   17.31             41952.5             79.1701        -1.02749e+06         3.26648e+07
   17.33             41928.5             79.1567        -1.02636e+06         3.26227e+07
   17.35             41904.6             79.1429        -1.02524e+06         3.25808e+07
   17.37             41880.8             79.1286        -1.02412e+06         3.25393e+07
   17.39               41857             79.1138        -1.02302e+06          3.2498e+07
   17.41             41833.3             79.0986        -1.02192e+06          3.2457e+07
   17.43             41809.7             79.0828        -1.02083e+06         3.24162e+07
   17.45             41786.1             79.0666        -1.01974e+06         3.23757e+07
   17.47             41762.6             79.0499        -1.01866e+06         3.23355e+07
   17.49               41739             79.0327        -1.01759e+06         3.22956e+07
   17.51             41715.6              79.015        -1.01652e+06         3.22559e+07
   17.53             41692.1             78.9968        -1.01546e+06         3.22164e+07
   17.55             41668.7             78.9781        -1.01441e+06         3.21772e+07
   17.57             41645.3             78.9588        -1.01336e+06         3.21383e+07
   17.59             41621.9             78.9391        -1.01232e+06         3.20996e+07
   17.61             41598.6             78.9187        -1.01129e+06         3.20611e+07
   17.63             41575.2             78.8979        -1.01026e+06         3.20229e+07
   17.65             41551.9             78.8765        -1.00923e+06         3.19849e+07
   17.67             41528.5             78.8545        -1.00822e+06         3.19472e+07
   17.69             41505.2              78.832         -1.0072e+06         3.19097e+07
   17.71             41481.8             78.8089         -1.0062e+06         3.18724e+07
   17.73             41458.5             78.7853         -1.0052e+06         3.18354e+07
   17.75             41435.1             78.7611         -1.0042e+06         3.17985e+07
   17.77             41411.7             78.7363        -1.00321e+06         3.17619e+07
   17.79             41388.3             78.7109        -1.00222e+06         3.17255e+07
   17.81             41364.9              78.685        -1.00124e+06         3.16894e+07
   17.83             41341.4             78.6584        -1.00027e+06         3.16534e+07
   17.85             41317.9             78.6313             -999301         3.16177e+07
   17.87             41294.4             78.6035             -998336         3.15821e+07
   17.89             41270.9             78.5752             -997376         3.15468e+07
   17.91             41247.3             78.5462             -996421         3.15117e+07
   17.93             41223.6             78.5167             -995471         3.14768e+07
   17.95               41200             78.4865             -994526         3.14421e+07
   17.97             41176.2             78.4557             -993585         3.14076e+07
   17.99             41152.5             78.4243             -992649         3.13733e+07
   18.01             41128.6             78.3923             -991717         3.13391e+07
   18.03             41104.8             78.3596             -990790         3.13052e+07
   18.05             41080.8             78.3263             -989867         3.12715e+07
   18.07             41056.8             78.2924             -988949         3.12379e+07
   18.09             41032.8             78.2578             -988034         3.12046e+07
   18.11             41008.6             78.2226             -987125         3.11714e+07
   18.13             40984.5             78.1868             -986219         3.11385e+07
   18.15             40960.2             78.1503             -985317         3.11057e+07
   18.17             40935.9             78.1131             -984420          3.1073e+07
   18.19             40911.5             78.0754             -983526         3.10406e+07
   18.21               40887             78.0369             -982637         3.10084e+07
   18.23             40862.4             77.9978             -981752         3.09763e+07
   18.25             40837.8              77.958             -980870         3.09444e+07
   18.27             40813.1             77.9176             -979992         3.09126e+07
   18.29             40788.3             77.8765             -979118         3.08811e+07
   18.31             40763.4             77.8348             -978248         3.08497e+07
   18.33             40738.4             77.7924             -977382         3.08185e+07
   18.35             40713.4             77.7493             -976519         3.07874e+07
   18.37             40688.2             77.7056             -975660         3.07565e+07
   18.39               40663             77.6611             -974805         3.07258e+07
   18.41             40637.6             77.6161             -973953         3.06953e+07
   18.43             40612.2             77.5703             -973105         3.06649e+07
   18.45             40586.7             77.5239             -972260         3.06347e+07
   18.47             40561.1             77.4767             -971419         3.06046e+07
   18.49             40535.4              77.429             -970581         3.05747e+07
   18.51             40509.5             77.3805             -969746         3.05449e+07
   18.53             40483.6             77.3313             -968915         3.05153e+07
   18.55             40457.6             77.2815             -968087         3.04859e+07
   18.57             40431.5              77.231             -967263         3.04566e+07
   18.59             40405.3             77.1798             -966441         3.04275e+07
   18.61             40378.9             77.1279             -965623         3.03985e+07
   18.63             40352.5             77.0754             -964808         3.03696e+07
   18.65               40326             77.0222             -963997          3.0341e+07
   18.67             40299.3             76.9682             -963188         3.03124e+07
   18.69             40272.6             76.9136             -962383          3.0284e+07
   18.71             40245.7             76.8583             -961581         3.02558e+07
   18.73             40218.7             76.8024             -960782         3.02277e+07
   18.75             40191.7             76.7457             -959986         3.01998e+07
   18.77             40164.5             76.6884             -959193          3.0172e+07
   18.79             40137.2             76.6304             -958403         3.01443e+07
   18.81             40109.8             76.5717             -957616         3.01168e+07
   18.83             40082.2             76.5123             -956832         3.00894e+07
   18.85             40054.6             76.4522             -956050         3.00622e+07
   18.87             40026.8             76.3915             -955272         3.00351e+07
   18.89               39999             76.3301             -954497         3.00081e+07
   18.91               39971             76.2679             -953724         2.99813e+07
   18.93             39942.9             76.2052             -952955         2.99546e+07
   18.95             39914.7             76.1417             -952188         2.99281e+07
   18.97             39886.4             76.0775             -951424         2.99017e+07
   18.99             39857.9             76.0127             -950663         2.98754e+07
   19.01             39829.4             75.9472             -949905         2.98493e+07
   19.03             39800.7              75.881             -949150         2.98233e+07
   19.05             39771.9             75.8142             -948397         2.97974e+07
   19.07               39743             75.7467             -947647         2.97717e+07
   19.09               39714             75.6785             -946900         2.97461e+07
   19.11             39684.9             75.6096             -946155         2.97206e+07
   19.13             39655.7             75.5401             -945413         2.96953e+07
   19.15             39626.3             75.4699             -944674         2.96701e+07
   19.17             39596.8              75.399             -943937          2.9645e+07
   19.19             39567.2             75.3275             -943204         2.96201e+07
   19.21             39537.5             75.2553             -942472         2.95952e+07
   19.23             39507.7             75.1824             -941744         2.95705e+07
   19.25             39477.8             75.1089             -941018          2.9546e+07
   19.27             39447.7             75.0347             -940294         2.95215e+07
   19.29             39417.5             74.9599             -939574         2.94972e+07
   19.31             39387.3             74.8844             -938855         2.94731e+07
   19.33             39356.9             74.8083             -938140          2.9449e+07
   19.35             39326.3             74.7315             -937427         2.94251e+07
   19.37             39295.7             74.6541             -936716         2.94013e+07
   19.39               39265              74.576             -936008         2.93776e+07
   19.41             39234.1             74.4973             -935303          2.9354e+07
   19.43             39203.2             74.4179             -934600         2.93306e+07
   19.45             39172.1             74.3379             -933899         2.93073e+07
   19.47             39140.9             74.2573             -933201         2.92841e+07
   19.49             39109.6              74.176             -932506          2.9261e+07
   19.51             39078.2             74.0941             -931813          2.9238e+07
   19.53             39046.7             74.0116             -931122         2.92152e+07
   19.55             39015.1             73.9285             -930434         2.91925e+07
   19.57             38983.3             73.8447             -929748         2.91699e+07
   19.59             38951.5             73.7603             -929065         2.91474e+07
   19.61             38919.5             73.6753             -928384         2.91251e+07
   19.63             38887.4             73.5897             -927706         2.91028e+07
   19.65             38855.3             73.5034             -927029         2.90807e+07
   19.67               38823             73.4166             -926356         2.90587e+07
   19.69             38790.6             73.3291             -925684         2.90368e+07
   19.71             38758.1              73.241             -925015         2.90151e+07
   19.73             38725.5             73.1524             -924349         2.89934e+07
   19.75             38692.8             73.0631             -923684         2.89719e+07
   19.77               38660             72.9733             -923022         2.89505e+07
   19.79             38627.1             72.8828             -922363         2.89292e+07
   19.81             38594.1             72.7918             -921705          2.8908e+07
   19.83             38560.9             72.7002             -921050         2.88869e+07
   19.85             38527.7              72.608             -920397         2.88659e+07
   19.87             38494.4             72.5152             -919747         2.88451e+07
   19.89               38461             72.4218             -919099         2.88243e+07
   19.91             38427.4             72.3279             -918453         2.88037e+07
   19.93             38393.8             72.2334             -917809         2.87832e+07
   19.95             38360.1             72.1384             -917167         2.87628e+07
   19.97             38326.3             72.0427             -916528         2.87425e+07
   19.99             38292.4             71.9466             -915891         2.87223e+07
